# E (eV)   ldos(E)   pdos(E)   
 -0.342  0.115E-02  0.115E-02
 -0.242  0.914E-03  0.914E-03
 -0.142  0.116E-02  0.116E-02
 -0.042  0.185E-02  0.185E-02
  0.058  0.426E-02  0.426E-02
  0.158  0.406E-02  0.406E-02
  0.258  0.625E-02  0.625E-02
  0.358  0.823E-02  0.823E-02
  0.458  0.103E-01  0.103E-01
  0.558  0.108E-01  0.108E-01
  0.658  0.113E-01  0.113E-01
  0.758  0.116E-01  0.116E-01
  0.858  0.116E-01  0.116E-01
  0.958  0.116E-01  0.116E-01
  1.058  0.118E-01  0.118E-01
  1.158  0.119E-01  0.119E-01
  1.258  0.118E-01  0.118E-01
  1.358  0.118E-01  0.118E-01
  1.458  0.118E-01  0.118E-01
  1.558  0.118E-01  0.118E-01
  1.658  0.118E-01  0.118E-01
  1.758  0.118E-01  0.118E-01
  1.858  0.122E-01  0.122E-01
  1.958  0.126E-01  0.126E-01
  2.058  0.128E-01  0.128E-01
  2.158  0.132E-01  0.132E-01
  2.258  0.135E-01  0.135E-01
  2.358  0.139E-01  0.139E-01
  2.458  0.146E-01  0.146E-01
  2.558  0.156E-01  0.156E-01
  2.658  0.152E-01  0.152E-01
  2.758  0.139E-01  0.139E-01
  2.858  0.132E-01  0.132E-01
  2.958  0.132E-01  0.132E-01
  3.058  0.137E-01  0.137E-01
  3.158  0.137E-01  0.137E-01
  3.258  0.127E-01  0.127E-01
  3.358  0.123E-01  0.123E-01
  3.458  0.124E-01  0.124E-01
  3.558  0.124E-01  0.124E-01
  3.658  0.127E-01  0.127E-01
  3.758  0.126E-01  0.126E-01
  3.858  0.125E-01  0.125E-01
  3.958  0.124E-01  0.124E-01
  4.058  0.123E-01  0.123E-01
  4.158  0.104E-01  0.104E-01
  4.258  0.973E-02  0.973E-02
  4.358  0.956E-02  0.956E-02
  4.458  0.891E-02  0.891E-02
  4.558  0.941E-02  0.941E-02
  4.658  0.914E-02  0.914E-02
  4.758  0.876E-02  0.876E-02
  4.858  0.806E-02  0.806E-02
  4.958  0.744E-02  0.744E-02
  5.058  0.691E-02  0.691E-02
  5.158  0.653E-02  0.653E-02
  5.258  0.612E-02  0.612E-02
  5.358  0.574E-02  0.574E-02
  5.458  0.538E-02  0.538E-02
  5.558  0.486E-02  0.486E-02
  5.658  0.451E-02  0.451E-02
  5.758  0.393E-02  0.393E-02
  5.858  0.366E-02  0.366E-02
  5.958  0.319E-02  0.319E-02
  6.058  0.289E-02  0.289E-02
  6.158  0.274E-02  0.274E-02
  6.258  0.270E-02  0.270E-02
  6.358  0.352E-02  0.352E-02
  6.458  0.162E-01  0.162E-01
  6.558  0.189E-01  0.189E-01
  6.658  0.175E-01  0.175E-01
  6.758  0.171E-01  0.171E-01
  6.858  0.170E-01  0.170E-01
  6.958  0.169E-01  0.169E-01
  7.058  0.171E-01  0.171E-01
  7.158  0.171E-01  0.171E-01
  7.258  0.164E-01  0.164E-01
  7.358  0.161E-01  0.161E-01
  7.458  0.159E-01  0.159E-01
  7.558  0.158E-01  0.158E-01
  7.658  0.157E-01  0.157E-01
  7.758  0.157E-01  0.157E-01
  7.858  0.156E-01  0.156E-01
  7.958  0.155E-01  0.155E-01
  8.058  0.151E-01  0.151E-01
  8.158  0.150E-01  0.150E-01
  8.258  0.148E-01  0.148E-01
  8.358  0.146E-01  0.146E-01
  8.458  0.145E-01  0.145E-01
  8.558  0.143E-01  0.143E-01
  8.658  0.142E-01  0.142E-01
  8.758  0.140E-01  0.140E-01
  8.858  0.139E-01  0.139E-01
  8.958  0.137E-01  0.137E-01
  9.058  0.133E-01  0.133E-01
  9.158  0.131E-01  0.131E-01
  9.258  0.131E-01  0.131E-01
  9.358  0.162E-01  0.162E-01
  9.458  0.184E-01  0.184E-01
  9.558  0.193E-01  0.193E-01
  9.658  0.199E-01  0.199E-01
  9.758  0.203E-01  0.203E-01
  9.858  0.201E-01  0.201E-01
  9.958  0.199E-01  0.199E-01
 10.058  0.197E-01  0.197E-01
 10.158  0.190E-01  0.190E-01
