# E (eV)  dos(E)    pdos(E)
 -0.342  0.201E+00  0.201E+00
 -0.242  0.193E+00  0.193E+00
 -0.142  0.187E+00  0.187E+00
 -0.042  0.202E+00  0.201E+00
  0.058  0.230E+00  0.229E+00
  0.158  0.192E+00  0.192E+00
  0.258  0.199E+00  0.199E+00
  0.358  0.193E+00  0.192E+00
  0.458  0.225E+00  0.225E+00
  0.558  0.241E+00  0.240E+00
  0.658  0.266E+00  0.266E+00
  0.758  0.298E+00  0.298E+00
  0.858  0.321E+00  0.321E+00
  0.958  0.306E+00  0.306E+00
  1.058  0.296E+00  0.296E+00
  1.158  0.305E+00  0.305E+00
  1.258  0.323E+00  0.322E+00
  1.358  0.308E+00  0.307E+00
  1.458  0.311E+00  0.310E+00
  1.558  0.314E+00  0.313E+00
  1.658  0.292E+00  0.291E+00
  1.758  0.285E+00  0.284E+00
  1.858  0.289E+00  0.289E+00
  1.958  0.296E+00  0.295E+00
  2.058  0.299E+00  0.299E+00
  2.158  0.309E+00  0.308E+00
  2.258  0.319E+00  0.318E+00
  2.358  0.332E+00  0.331E+00
  2.458  0.356E+00  0.355E+00
  2.558  0.383E+00  0.382E+00
  2.658  0.383E+00  0.382E+00
  2.758  0.362E+00  0.361E+00
  2.858  0.352E+00  0.351E+00
  2.958  0.353E+00  0.353E+00
  3.058  0.373E+00  0.373E+00
  3.158  0.382E+00  0.381E+00
  3.258  0.380E+00  0.379E+00
  3.358  0.395E+00  0.394E+00
  3.458  0.413E+00  0.412E+00
  3.558  0.423E+00  0.422E+00
  3.658  0.433E+00  0.432E+00
  3.758  0.424E+00  0.423E+00
  3.858  0.428E+00  0.427E+00
  3.958  0.448E+00  0.447E+00
  4.058  0.492E+00  0.491E+00
  4.158  0.471E+00  0.470E+00
  4.258  0.466E+00  0.465E+00
  4.358  0.480E+00  0.479E+00
  4.458  0.468E+00  0.466E+00
  4.558  0.497E+00  0.495E+00
  4.658  0.512E+00  0.511E+00
  4.758  0.543E+00  0.541E+00
  4.858  0.536E+00  0.535E+00
  4.958  0.531E+00  0.529E+00
  5.058  0.529E+00  0.528E+00
  5.158  0.531E+00  0.529E+00
  5.258  0.533E+00  0.531E+00
  5.358  0.561E+00  0.559E+00
  5.458  0.620E+00  0.618E+00
  5.558  0.658E+00  0.656E+00
  5.658  0.647E+00  0.645E+00
  5.758  0.598E+00  0.596E+00
  5.858  0.541E+00  0.539E+00
  5.958  0.494E+00  0.492E+00
  6.058  0.495E+00  0.493E+00
  6.158  0.467E+00  0.465E+00
  6.258  0.446E+00  0.444E+00
  6.358  0.422E+00  0.420E+00
  6.458  0.452E+00  0.450E+00
  6.558  0.455E+00  0.452E+00
  6.658  0.438E+00  0.435E+00
  6.758  0.426E+00  0.423E+00
  6.858  0.414E+00  0.411E+00
  6.958  0.402E+00  0.399E+00
  7.058  0.397E+00  0.394E+00
  7.158  0.391E+00  0.388E+00
  7.258  0.381E+00  0.378E+00
  7.358  0.371E+00  0.367E+00
  7.458  0.363E+00  0.360E+00
  7.558  0.356E+00  0.352E+00
  7.658  0.351E+00  0.348E+00
  7.758  0.342E+00  0.338E+00
  7.858  0.333E+00  0.329E+00
  7.958  0.313E+00  0.309E+00
  8.058  0.284E+00  0.280E+00
  8.158  0.243E+00  0.239E+00
  8.258  0.213E+00  0.209E+00
  8.358  0.181E+00  0.178E+00
  8.458  0.149E+00  0.146E+00
  8.558  0.145E+00  0.142E+00
  8.658  0.143E+00  0.139E+00
  8.758  0.141E+00  0.137E+00
  8.858  0.140E+00  0.137E+00
  8.958  0.139E+00  0.135E+00
  9.058  0.136E+00  0.132E+00
  9.158  0.135E+00  0.130E+00
  9.258  0.134E+00  0.129E+00
  9.358  0.143E+00  0.138E+00
  9.458  0.153E+00  0.147E+00
  9.558  0.161E+00  0.153E+00
  9.658  0.169E+00  0.161E+00
  9.758  0.178E+00  0.169E+00
  9.858  0.184E+00  0.174E+00
  9.958  0.189E+00  0.179E+00
 10.058  0.194E+00  0.183E+00
 10.158  0.194E+00  0.184E+00
