# E (eV)   ldos(E)   pdos(E)   
  -6.115  0.308E-04  0.308E-04
  -6.105  0.480E-04  0.480E-04
  -6.095  0.740E-04  0.740E-04
  -6.085  0.113E-03  0.113E-03
  -6.075  0.171E-03  0.171E-03
  -6.065  0.255E-03  0.255E-03
  -6.055  0.378E-03  0.378E-03
  -6.045  0.553E-03  0.553E-03
  -6.035  0.801E-03  0.801E-03
  -6.025  0.115E-02  0.115E-02
  -6.015  0.163E-02  0.163E-02
  -6.005  0.229E-02  0.229E-02
  -5.995  0.318E-02  0.318E-02
  -5.985  0.438E-02  0.438E-02
  -5.975  0.595E-02  0.595E-02
  -5.965  0.802E-02  0.802E-02
  -5.955  0.107E-01  0.107E-01
  -5.945  0.141E-01  0.141E-01
  -5.935  0.184E-01  0.184E-01
  -5.925  0.238E-01  0.238E-01
  -5.915  0.305E-01  0.305E-01
  -5.905  0.386E-01  0.386E-01
  -5.895  0.484E-01  0.484E-01
  -5.885  0.600E-01  0.600E-01
  -5.875  0.737E-01  0.737E-01
  -5.865  0.896E-01  0.896E-01
  -5.855  0.108E+00  0.108E+00
  -5.845  0.129E+00  0.129E+00
  -5.835  0.152E+00  0.152E+00
  -5.825  0.177E+00  0.177E+00
  -5.815  0.205E+00  0.205E+00
  -5.805  0.235E+00  0.235E+00
  -5.795  0.267E+00  0.267E+00
  -5.785  0.300E+00  0.300E+00
  -5.775  0.335E+00  0.335E+00
  -5.765  0.369E+00  0.369E+00
  -5.755  0.404E+00  0.404E+00
  -5.745  0.438E+00  0.438E+00
  -5.735  0.471E+00  0.471E+00
  -5.725  0.501E+00  0.501E+00
  -5.715  0.530E+00  0.530E+00
  -5.705  0.555E+00  0.555E+00
  -5.695  0.577E+00  0.577E+00
  -5.685  0.596E+00  0.596E+00
  -5.675  0.610E+00  0.610E+00
  -5.665  0.620E+00  0.620E+00
  -5.655  0.626E+00  0.626E+00
  -5.645  0.629E+00  0.629E+00
  -5.635  0.627E+00  0.627E+00
  -5.625  0.622E+00  0.622E+00
  -5.615  0.613E+00  0.613E+00
  -5.605  0.602E+00  0.602E+00
  -5.595  0.589E+00  0.589E+00
  -5.585  0.573E+00  0.573E+00
  -5.575  0.556E+00  0.556E+00
  -5.565  0.538E+00  0.538E+00
  -5.555  0.519E+00  0.519E+00
  -5.545  0.500E+00  0.500E+00
  -5.535  0.481E+00  0.481E+00
  -5.525  0.463E+00  0.463E+00
  -5.515  0.445E+00  0.445E+00
  -5.505  0.428E+00  0.428E+00
  -5.495  0.412E+00  0.412E+00
  -5.485  0.398E+00  0.398E+00
  -5.475  0.385E+00  0.385E+00
  -5.465  0.372E+00  0.372E+00
  -5.455  0.361E+00  0.361E+00
  -5.445  0.351E+00  0.351E+00
  -5.435  0.343E+00  0.343E+00
  -5.425  0.334E+00  0.334E+00
  -5.415  0.327E+00  0.327E+00
  -5.405  0.320E+00  0.320E+00
  -5.395  0.313E+00  0.313E+00
  -5.385  0.307E+00  0.307E+00
  -5.375  0.301E+00  0.301E+00
  -5.365  0.294E+00  0.294E+00
  -5.355  0.288E+00  0.288E+00
  -5.345  0.281E+00  0.281E+00
  -5.335  0.275E+00  0.275E+00
  -5.325  0.268E+00  0.268E+00
  -5.315  0.261E+00  0.261E+00
  -5.305  0.255E+00  0.255E+00
  -5.295  0.248E+00  0.248E+00
  -5.285  0.242E+00  0.242E+00
  -5.275  0.235E+00  0.235E+00
  -5.265  0.230E+00  0.230E+00
  -5.255  0.225E+00  0.225E+00
  -5.245  0.220E+00  0.220E+00
  -5.235  0.216E+00  0.216E+00
  -5.225  0.213E+00  0.213E+00
  -5.215  0.210E+00  0.210E+00
  -5.205  0.208E+00  0.208E+00
  -5.195  0.207E+00  0.207E+00
  -5.185  0.207E+00  0.207E+00
  -5.175  0.207E+00  0.207E+00
  -5.165  0.207E+00  0.207E+00
  -5.155  0.208E+00  0.208E+00
  -5.145  0.209E+00  0.209E+00
  -5.135  0.210E+00  0.210E+00
  -5.125  0.210E+00  0.210E+00
  -5.115  0.211E+00  0.211E+00
  -5.105  0.211E+00  0.211E+00
  -5.095  0.211E+00  0.211E+00
  -5.085  0.210E+00  0.210E+00
  -5.075  0.209E+00  0.209E+00
  -5.065  0.207E+00  0.207E+00
  -5.055  0.204E+00  0.204E+00
  -5.045  0.201E+00  0.201E+00
  -5.035  0.196E+00  0.196E+00
  -5.025  0.192E+00  0.192E+00
  -5.015  0.186E+00  0.186E+00
  -5.005  0.180E+00  0.180E+00
  -4.995  0.174E+00  0.174E+00
  -4.985  0.168E+00  0.168E+00
  -4.975  0.162E+00  0.162E+00
  -4.965  0.156E+00  0.156E+00
  -4.955  0.150E+00  0.150E+00
  -4.945  0.145E+00  0.145E+00
  -4.935  0.140E+00  0.140E+00
  -4.925  0.136E+00  0.136E+00
  -4.915  0.134E+00  0.134E+00
  -4.905  0.132E+00  0.132E+00
  -4.895  0.131E+00  0.131E+00
  -4.885  0.131E+00  0.131E+00
  -4.875  0.132E+00  0.132E+00
  -4.865  0.134E+00  0.134E+00
  -4.855  0.137E+00  0.137E+00
  -4.845  0.141E+00  0.141E+00
  -4.835  0.146E+00  0.146E+00
  -4.825  0.150E+00  0.150E+00
  -4.815  0.156E+00  0.156E+00
  -4.805  0.161E+00  0.161E+00
  -4.795  0.166E+00  0.166E+00
  -4.785  0.171E+00  0.171E+00
  -4.775  0.176E+00  0.176E+00
  -4.765  0.179E+00  0.179E+00
  -4.755  0.182E+00  0.182E+00
  -4.745  0.184E+00  0.184E+00
  -4.735  0.185E+00  0.185E+00
  -4.725  0.184E+00  0.184E+00
  -4.715  0.183E+00  0.183E+00
  -4.705  0.180E+00  0.180E+00
  -4.695  0.175E+00  0.175E+00
  -4.685  0.170E+00  0.170E+00
  -4.675  0.164E+00  0.164E+00
  -4.665  0.157E+00  0.157E+00
  -4.655  0.149E+00  0.149E+00
  -4.645  0.140E+00  0.140E+00
  -4.635  0.132E+00  0.132E+00
  -4.625  0.123E+00  0.123E+00
  -4.615  0.114E+00  0.114E+00
  -4.605  0.106E+00  0.106E+00
  -4.595  0.988E-01  0.988E-01
  -4.585  0.921E-01  0.921E-01
  -4.575  0.865E-01  0.865E-01
  -4.565  0.819E-01  0.819E-01
  -4.555  0.787E-01  0.787E-01
  -4.545  0.767E-01  0.767E-01
  -4.535  0.762E-01  0.762E-01
  -4.525  0.770E-01  0.770E-01
  -4.515  0.792E-01  0.792E-01
  -4.505  0.827E-01  0.827E-01
  -4.495  0.874E-01  0.874E-01
  -4.485  0.932E-01  0.932E-01
  -4.475  0.999E-01  0.999E-01
  -4.465  0.107E+00  0.107E+00
  -4.455  0.115E+00  0.115E+00
  -4.445  0.124E+00  0.124E+00
  -4.435  0.133E+00  0.133E+00
  -4.425  0.141E+00  0.141E+00
  -4.415  0.149E+00  0.149E+00
  -4.405  0.157E+00  0.157E+00
  -4.395  0.164E+00  0.164E+00
  -4.385  0.170E+00  0.170E+00
  -4.375  0.175E+00  0.175E+00
  -4.365  0.178E+00  0.178E+00
  -4.355  0.180E+00  0.180E+00
  -4.345  0.181E+00  0.181E+00
  -4.335  0.180E+00  0.180E+00
  -4.325  0.178E+00  0.178E+00
  -4.315  0.174E+00  0.174E+00
  -4.305  0.168E+00  0.168E+00
  -4.295  0.162E+00  0.162E+00
  -4.285  0.154E+00  0.154E+00
  -4.275  0.145E+00  0.145E+00
  -4.265  0.136E+00  0.136E+00
  -4.255  0.126E+00  0.126E+00
  -4.245  0.116E+00  0.116E+00
  -4.235  0.105E+00  0.105E+00
  -4.225  0.954E-01  0.954E-01
  -4.215  0.858E-01  0.858E-01
  -4.205  0.767E-01  0.767E-01
  -4.195  0.684E-01  0.684E-01
  -4.185  0.611E-01  0.611E-01
  -4.175  0.548E-01  0.548E-01
  -4.165  0.497E-01  0.497E-01
  -4.155  0.458E-01  0.458E-01
  -4.145  0.432E-01  0.432E-01
  -4.135  0.421E-01  0.421E-01
  -4.125  0.422E-01  0.422E-01
  -4.115  0.438E-01  0.438E-01
  -4.105  0.468E-01  0.468E-01
  -4.095  0.511E-01  0.511E-01
  -4.085  0.567E-01  0.567E-01
  -4.075  0.635E-01  0.635E-01
  -4.065  0.714E-01  0.714E-01
  -4.055  0.802E-01  0.802E-01
  -4.045  0.899E-01  0.899E-01
  -4.035  0.100E+00  0.100E+00
  -4.025  0.111E+00  0.111E+00
  -4.015  0.122E+00  0.122E+00
  -4.005  0.133E+00  0.133E+00
  -3.995  0.143E+00  0.143E+00
  -3.985  0.153E+00  0.153E+00
  -3.975  0.162E+00  0.162E+00
  -3.965  0.170E+00  0.170E+00
  -3.955  0.177E+00  0.177E+00
  -3.945  0.182E+00  0.182E+00
  -3.935  0.185E+00  0.185E+00
  -3.925  0.186E+00  0.186E+00
  -3.915  0.186E+00  0.186E+00
  -3.905  0.184E+00  0.184E+00
  -3.895  0.180E+00  0.180E+00
  -3.885  0.175E+00  0.175E+00
  -3.875  0.168E+00  0.168E+00
  -3.865  0.159E+00  0.159E+00
  -3.855  0.150E+00  0.150E+00
  -3.845  0.140E+00  0.140E+00
  -3.835  0.129E+00  0.129E+00
  -3.825  0.118E+00  0.118E+00
  -3.815  0.107E+00  0.107E+00
  -3.805  0.962E-01  0.962E-01
  -3.795  0.858E-01  0.858E-01
  -3.785  0.760E-01  0.760E-01
  -3.775  0.669E-01  0.669E-01
  -3.765  0.588E-01  0.588E-01
  -3.755  0.517E-01  0.517E-01
  -3.745  0.458E-01  0.458E-01
  -3.735  0.410E-01  0.410E-01
  -3.725  0.374E-01  0.374E-01
  -3.715  0.352E-01  0.352E-01
  -3.705  0.342E-01  0.342E-01
  -3.695  0.345E-01  0.345E-01
  -3.685  0.361E-01  0.361E-01
  -3.675  0.390E-01  0.390E-01
  -3.665  0.432E-01  0.432E-01
  -3.655  0.486E-01  0.486E-01
  -3.645  0.552E-01  0.552E-01
  -3.635  0.629E-01  0.629E-01
  -3.625  0.717E-01  0.717E-01
  -3.615  0.813E-01  0.813E-01
  -3.605  0.917E-01  0.917E-01
  -3.595  0.103E+00  0.103E+00
  -3.585  0.114E+00  0.114E+00
  -3.575  0.126E+00  0.126E+00
  -3.565  0.137E+00  0.137E+00
  -3.555  0.149E+00  0.149E+00
  -3.545  0.160E+00  0.160E+00
  -3.535  0.170E+00  0.170E+00
  -3.525  0.180E+00  0.180E+00
  -3.515  0.188E+00  0.188E+00
  -3.505  0.196E+00  0.196E+00
  -3.495  0.201E+00  0.201E+00
  -3.485  0.206E+00  0.206E+00
  -3.475  0.209E+00  0.209E+00
  -3.465  0.211E+00  0.211E+00
  -3.455  0.211E+00  0.211E+00
  -3.445  0.210E+00  0.210E+00
  -3.435  0.208E+00  0.208E+00
  -3.425  0.204E+00  0.204E+00
  -3.415  0.199E+00  0.199E+00
  -3.405  0.194E+00  0.194E+00
  -3.395  0.187E+00  0.187E+00
  -3.385  0.180E+00  0.180E+00
  -3.375  0.173E+00  0.173E+00
  -3.365  0.164E+00  0.164E+00
  -3.355  0.156E+00  0.156E+00
  -3.345  0.147E+00  0.147E+00
  -3.335  0.138E+00  0.138E+00
  -3.325  0.129E+00  0.129E+00
  -3.315  0.121E+00  0.121E+00
  -3.305  0.112E+00  0.112E+00
  -3.295  0.103E+00  0.103E+00
  -3.285  0.952E-01  0.952E-01
  -3.275  0.875E-01  0.875E-01
  -3.265  0.804E-01  0.804E-01
  -3.255  0.738E-01  0.738E-01
  -3.245  0.679E-01  0.679E-01
  -3.235  0.628E-01  0.628E-01
  -3.225  0.585E-01  0.585E-01
  -3.215  0.550E-01  0.550E-01
  -3.205  0.524E-01  0.524E-01
  -3.195  0.506E-01  0.506E-01
  -3.185  0.496E-01  0.496E-01
  -3.175  0.494E-01  0.494E-01
  -3.165  0.499E-01  0.499E-01
  -3.155  0.510E-01  0.510E-01
  -3.145  0.526E-01  0.526E-01
  -3.135  0.545E-01  0.545E-01
  -3.125  0.567E-01  0.567E-01
  -3.115  0.590E-01  0.590E-01
  -3.105  0.614E-01  0.614E-01
  -3.095  0.636E-01  0.636E-01
  -3.085  0.657E-01  0.657E-01
  -3.075  0.674E-01  0.674E-01
  -3.065  0.689E-01  0.689E-01
  -3.055  0.700E-01  0.700E-01
  -3.045  0.708E-01  0.708E-01
  -3.035  0.712E-01  0.712E-01
  -3.025  0.713E-01  0.713E-01
  -3.015  0.711E-01  0.711E-01
  -3.005  0.708E-01  0.708E-01
  -2.995  0.703E-01  0.703E-01
  -2.985  0.698E-01  0.698E-01
  -2.975  0.692E-01  0.692E-01
  -2.965  0.687E-01  0.687E-01
  -2.955  0.683E-01  0.683E-01
  -2.945  0.680E-01  0.680E-01
  -2.935  0.679E-01  0.679E-01
  -2.925  0.678E-01  0.678E-01
  -2.915  0.678E-01  0.678E-01
  -2.905  0.678E-01  0.678E-01
  -2.895  0.678E-01  0.678E-01
  -2.885  0.677E-01  0.677E-01
  -2.875  0.675E-01  0.675E-01
  -2.865  0.672E-01  0.672E-01
  -2.855  0.668E-01  0.668E-01
  -2.845  0.661E-01  0.661E-01
  -2.835  0.653E-01  0.653E-01
  -2.825  0.644E-01  0.644E-01
  -2.815  0.634E-01  0.634E-01
  -2.805  0.624E-01  0.624E-01
  -2.795  0.614E-01  0.614E-01
  -2.785  0.605E-01  0.605E-01
  -2.775  0.597E-01  0.597E-01
  -2.765  0.592E-01  0.592E-01
  -2.755  0.589E-01  0.589E-01
  -2.745  0.589E-01  0.589E-01
  -2.735  0.592E-01  0.592E-01
  -2.725  0.598E-01  0.598E-01
  -2.715  0.606E-01  0.606E-01
  -2.705  0.616E-01  0.616E-01
  -2.695  0.627E-01  0.627E-01
  -2.685  0.638E-01  0.638E-01
  -2.675  0.649E-01  0.649E-01
  -2.665  0.658E-01  0.658E-01
  -2.655  0.664E-01  0.664E-01
  -2.645  0.667E-01  0.667E-01
  -2.635  0.665E-01  0.665E-01
  -2.625  0.659E-01  0.659E-01
  -2.615  0.648E-01  0.648E-01
  -2.605  0.632E-01  0.632E-01
  -2.595  0.611E-01  0.611E-01
  -2.585  0.585E-01  0.585E-01
  -2.575  0.555E-01  0.555E-01
  -2.565  0.522E-01  0.522E-01
  -2.555  0.486E-01  0.486E-01
  -2.545  0.449E-01  0.449E-01
  -2.535  0.412E-01  0.412E-01
  -2.525  0.375E-01  0.375E-01
  -2.515  0.340E-01  0.340E-01
  -2.505  0.307E-01  0.307E-01
  -2.495  0.278E-01  0.278E-01
  -2.485  0.253E-01  0.253E-01
  -2.475  0.234E-01  0.234E-01
  -2.465  0.221E-01  0.221E-01
  -2.455  0.215E-01  0.215E-01
  -2.445  0.217E-01  0.217E-01
  -2.435  0.227E-01  0.227E-01
  -2.425  0.246E-01  0.246E-01
  -2.415  0.275E-01  0.275E-01
  -2.405  0.314E-01  0.314E-01
  -2.395  0.364E-01  0.364E-01
  -2.385  0.425E-01  0.425E-01
  -2.375  0.499E-01  0.499E-01
  -2.365  0.585E-01  0.585E-01
  -2.355  0.683E-01  0.683E-01
  -2.345  0.794E-01  0.794E-01
  -2.335  0.917E-01  0.917E-01
  -2.325  0.105E+00  0.105E+00
  -2.315  0.120E+00  0.120E+00
  -2.305  0.136E+00  0.136E+00
  -2.295  0.152E+00  0.152E+00
  -2.285  0.170E+00  0.170E+00
  -2.275  0.188E+00  0.188E+00
  -2.265  0.206E+00  0.206E+00
  -2.255  0.225E+00  0.225E+00
  -2.245  0.243E+00  0.243E+00
  -2.235  0.261E+00  0.261E+00
  -2.225  0.279E+00  0.279E+00
  -2.215  0.296E+00  0.296E+00
  -2.205  0.312E+00  0.312E+00
  -2.195  0.327E+00  0.327E+00
  -2.185  0.341E+00  0.341E+00
  -2.175  0.352E+00  0.352E+00
  -2.165  0.362E+00  0.362E+00
  -2.155  0.371E+00  0.371E+00
  -2.145  0.377E+00  0.377E+00
  -2.135  0.381E+00  0.381E+00
  -2.125  0.384E+00  0.384E+00
  -2.115  0.384E+00  0.384E+00
  -2.105  0.383E+00  0.383E+00
  -2.095  0.380E+00  0.380E+00
  -2.085  0.375E+00  0.375E+00
  -2.075  0.369E+00  0.369E+00
  -2.065  0.361E+00  0.361E+00
  -2.055  0.353E+00  0.353E+00
  -2.045  0.344E+00  0.344E+00
  -2.035  0.334E+00  0.334E+00
  -2.025  0.323E+00  0.323E+00
  -2.015  0.312E+00  0.312E+00
  -2.005  0.301E+00  0.301E+00
  -1.995  0.289E+00  0.289E+00
  -1.985  0.278E+00  0.278E+00
  -1.975  0.267E+00  0.267E+00
  -1.965  0.255E+00  0.255E+00
  -1.955  0.244E+00  0.244E+00
  -1.945  0.233E+00  0.233E+00
  -1.935  0.222E+00  0.222E+00
  -1.925  0.211E+00  0.211E+00
  -1.915  0.201E+00  0.201E+00
  -1.905  0.191E+00  0.191E+00
  -1.895  0.181E+00  0.181E+00
  -1.885  0.171E+00  0.171E+00
  -1.875  0.162E+00  0.162E+00
  -1.865  0.153E+00  0.153E+00
  -1.855  0.144E+00  0.144E+00
  -1.845  0.136E+00  0.136E+00
  -1.835  0.129E+00  0.129E+00
  -1.825  0.122E+00  0.122E+00
  -1.815  0.116E+00  0.116E+00
  -1.805  0.110E+00  0.110E+00
  -1.795  0.105E+00  0.105E+00
  -1.785  0.101E+00  0.101E+00
  -1.775  0.966E-01  0.966E-01
  -1.765  0.932E-01  0.932E-01
  -1.755  0.903E-01  0.903E-01
  -1.745  0.879E-01  0.879E-01
  -1.735  0.861E-01  0.861E-01
  -1.725  0.847E-01  0.847E-01
  -1.715  0.837E-01  0.837E-01
  -1.705  0.833E-01  0.833E-01
  -1.695  0.833E-01  0.833E-01
  -1.685  0.838E-01  0.838E-01
  -1.675  0.847E-01  0.847E-01
  -1.665  0.862E-01  0.862E-01
  -1.655  0.880E-01  0.880E-01
  -1.645  0.903E-01  0.903E-01
  -1.635  0.929E-01  0.929E-01
  -1.625  0.958E-01  0.958E-01
  -1.615  0.989E-01  0.989E-01
  -1.605  0.102E+00  0.102E+00
  -1.595  0.105E+00  0.105E+00
  -1.585  0.108E+00  0.108E+00
  -1.575  0.110E+00  0.110E+00
  -1.565  0.112E+00  0.112E+00
  -1.555  0.114E+00  0.114E+00
  -1.545  0.115E+00  0.115E+00
  -1.535  0.115E+00  0.115E+00
  -1.525  0.114E+00  0.114E+00
  -1.515  0.113E+00  0.113E+00
  -1.505  0.111E+00  0.111E+00
  -1.495  0.108E+00  0.108E+00
  -1.485  0.105E+00  0.105E+00
  -1.475  0.101E+00  0.101E+00
  -1.465  0.971E-01  0.971E-01
  -1.455  0.930E-01  0.930E-01
  -1.445  0.890E-01  0.890E-01
  -1.435  0.850E-01  0.850E-01
  -1.425  0.814E-01  0.814E-01
  -1.415  0.780E-01  0.780E-01
  -1.405  0.750E-01  0.750E-01
  -1.395  0.725E-01  0.725E-01
  -1.385  0.703E-01  0.703E-01
  -1.375  0.685E-01  0.685E-01
  -1.365  0.671E-01  0.671E-01
  -1.355  0.660E-01  0.660E-01
  -1.345  0.650E-01  0.650E-01
  -1.335  0.642E-01  0.642E-01
  -1.325  0.634E-01  0.634E-01
  -1.315  0.626E-01  0.626E-01
  -1.305  0.617E-01  0.617E-01
  -1.295  0.608E-01  0.608E-01
  -1.285  0.597E-01  0.597E-01
  -1.275  0.586E-01  0.586E-01
  -1.265  0.573E-01  0.573E-01
  -1.255  0.561E-01  0.561E-01
  -1.245  0.549E-01  0.549E-01
  -1.235  0.538E-01  0.538E-01
  -1.225  0.529E-01  0.529E-01
  -1.215  0.522E-01  0.522E-01
  -1.205  0.518E-01  0.518E-01
  -1.195  0.518E-01  0.518E-01
  -1.185  0.522E-01  0.522E-01
  -1.175  0.530E-01  0.530E-01
  -1.165  0.543E-01  0.543E-01
  -1.155  0.560E-01  0.560E-01
  -1.145  0.580E-01  0.580E-01
  -1.135  0.605E-01  0.605E-01
  -1.125  0.633E-01  0.633E-01
  -1.115  0.663E-01  0.663E-01
  -1.105  0.696E-01  0.696E-01
  -1.095  0.731E-01  0.731E-01
  -1.085  0.767E-01  0.767E-01
  -1.075  0.804E-01  0.804E-01
  -1.065  0.843E-01  0.843E-01
  -1.055  0.883E-01  0.883E-01
  -1.045  0.924E-01  0.924E-01
  -1.035  0.967E-01  0.967E-01
  -1.025  0.101E+00  0.101E+00
  -1.015  0.106E+00  0.106E+00
  -1.005  0.111E+00  0.111E+00
  -0.995  0.116E+00  0.116E+00
  -0.985  0.122E+00  0.122E+00
  -0.975  0.128E+00  0.128E+00
  -0.965  0.135E+00  0.135E+00
  -0.955  0.142E+00  0.142E+00
  -0.945  0.149E+00  0.149E+00
  -0.935  0.157E+00  0.157E+00
  -0.925  0.165E+00  0.165E+00
  -0.915  0.173E+00  0.173E+00
  -0.905  0.182E+00  0.182E+00
  -0.895  0.191E+00  0.191E+00
  -0.885  0.200E+00  0.200E+00
  -0.875  0.209E+00  0.209E+00
  -0.865  0.218E+00  0.218E+00
  -0.855  0.226E+00  0.226E+00
  -0.845  0.235E+00  0.235E+00
  -0.835  0.243E+00  0.243E+00
  -0.825  0.250E+00  0.250E+00
  -0.815  0.258E+00  0.258E+00
  -0.805  0.265E+00  0.265E+00
  -0.795  0.271E+00  0.271E+00
  -0.785  0.277E+00  0.277E+00
  -0.775  0.283E+00  0.283E+00
  -0.765  0.288E+00  0.288E+00
  -0.755  0.292E+00  0.292E+00
  -0.745  0.296E+00  0.296E+00
  -0.735  0.299E+00  0.299E+00
  -0.725  0.301E+00  0.301E+00
  -0.715  0.302E+00  0.302E+00
  -0.705  0.303E+00  0.303E+00
  -0.695  0.302E+00  0.302E+00
  -0.685  0.301E+00  0.301E+00
  -0.675  0.298E+00  0.298E+00
  -0.665  0.294E+00  0.294E+00
  -0.655  0.289E+00  0.289E+00
  -0.645  0.282E+00  0.282E+00
  -0.635  0.274E+00  0.274E+00
  -0.625  0.265E+00  0.265E+00
  -0.615  0.254E+00  0.254E+00
  -0.605  0.243E+00  0.243E+00
  -0.595  0.230E+00  0.230E+00
  -0.585  0.217E+00  0.217E+00
  -0.575  0.204E+00  0.204E+00
  -0.565  0.190E+00  0.190E+00
  -0.555  0.175E+00  0.175E+00
  -0.545  0.161E+00  0.161E+00
  -0.535  0.148E+00  0.148E+00
  -0.525  0.134E+00  0.134E+00
  -0.515  0.121E+00  0.121E+00
  -0.505  0.109E+00  0.109E+00
  -0.495  0.983E-01  0.983E-01
  -0.485  0.881E-01  0.881E-01
  -0.475  0.788E-01  0.788E-01
  -0.465  0.707E-01  0.707E-01
  -0.455  0.636E-01  0.636E-01
  -0.445  0.575E-01  0.575E-01
  -0.435  0.525E-01  0.525E-01
  -0.425  0.485E-01  0.485E-01
  -0.415  0.454E-01  0.454E-01
  -0.405  0.431E-01  0.431E-01
  -0.395  0.417E-01  0.417E-01
  -0.385  0.409E-01  0.409E-01
  -0.375  0.407E-01  0.407E-01
  -0.365  0.410E-01  0.410E-01
  -0.355  0.417E-01  0.417E-01
  -0.345  0.426E-01  0.426E-01
  -0.335  0.436E-01  0.436E-01
  -0.325  0.447E-01  0.447E-01
  -0.315  0.457E-01  0.457E-01
  -0.305  0.466E-01  0.466E-01
  -0.295  0.473E-01  0.473E-01
  -0.285  0.478E-01  0.478E-01
  -0.275  0.481E-01  0.481E-01
  -0.265  0.481E-01  0.481E-01
  -0.255  0.478E-01  0.478E-01
  -0.245  0.474E-01  0.474E-01
  -0.235  0.468E-01  0.468E-01
  -0.225  0.461E-01  0.461E-01
  -0.215  0.454E-01  0.454E-01
  -0.205  0.447E-01  0.447E-01
  -0.195  0.442E-01  0.442E-01
  -0.185  0.438E-01  0.438E-01
  -0.175  0.438E-01  0.438E-01
  -0.165  0.440E-01  0.440E-01
  -0.155  0.445E-01  0.445E-01
  -0.145  0.454E-01  0.454E-01
  -0.135  0.467E-01  0.467E-01
  -0.125  0.482E-01  0.482E-01
  -0.115  0.501E-01  0.501E-01
  -0.105  0.522E-01  0.522E-01
  -0.095  0.545E-01  0.545E-01
  -0.085  0.569E-01  0.569E-01
  -0.075  0.595E-01  0.595E-01
  -0.065  0.620E-01  0.620E-01
  -0.055  0.646E-01  0.646E-01
  -0.045  0.670E-01  0.670E-01
  -0.035  0.694E-01  0.694E-01
  -0.025  0.716E-01  0.716E-01
  -0.015  0.737E-01  0.737E-01
  -0.005  0.757E-01  0.757E-01
   0.005  0.774E-01  0.774E-01
   0.015  0.790E-01  0.790E-01
   0.025  0.804E-01  0.804E-01
   0.035  0.816E-01  0.816E-01
   0.045  0.825E-01  0.825E-01
   0.055  0.833E-01  0.833E-01
   0.065  0.838E-01  0.838E-01
   0.075  0.839E-01  0.839E-01
   0.085  0.838E-01  0.838E-01
   0.095  0.833E-01  0.833E-01
   0.105  0.824E-01  0.824E-01
   0.115  0.811E-01  0.811E-01
   0.125  0.793E-01  0.793E-01
   0.135  0.772E-01  0.772E-01
   0.145  0.745E-01  0.745E-01
   0.155  0.715E-01  0.715E-01
   0.165  0.680E-01  0.680E-01
   0.175  0.643E-01  0.643E-01
   0.185  0.602E-01  0.602E-01
   0.195  0.559E-01  0.559E-01
   0.205  0.515E-01  0.515E-01
   0.215  0.470E-01  0.470E-01
   0.225  0.425E-01  0.425E-01
   0.235  0.381E-01  0.381E-01
   0.245  0.338E-01  0.338E-01
   0.255  0.297E-01  0.297E-01
   0.265  0.259E-01  0.259E-01
   0.275  0.223E-01  0.223E-01
   0.285  0.191E-01  0.191E-01
   0.295  0.162E-01  0.162E-01
   0.305  0.136E-01  0.136E-01
   0.315  0.113E-01  0.113E-01
   0.325  0.939E-02  0.939E-02
   0.335  0.778E-02  0.778E-02
   0.345  0.646E-02  0.646E-02
   0.355  0.543E-02  0.543E-02
   0.365  0.467E-02  0.467E-02
   0.375  0.416E-02  0.416E-02
   0.385  0.390E-02  0.390E-02
   0.395  0.387E-02  0.387E-02
   0.405  0.407E-02  0.407E-02
   0.415  0.450E-02  0.450E-02
   0.425  0.516E-02  0.516E-02
   0.435  0.606E-02  0.606E-02
   0.445  0.720E-02  0.720E-02
   0.455  0.860E-02  0.860E-02
   0.465  0.102E-01  0.102E-01
   0.475  0.122E-01  0.122E-01
   0.485  0.143E-01  0.143E-01
   0.495  0.168E-01  0.168E-01
   0.505  0.194E-01  0.194E-01
   0.515  0.223E-01  0.223E-01
   0.525  0.255E-01  0.255E-01
   0.535  0.288E-01  0.288E-01
   0.545  0.322E-01  0.322E-01
   0.555  0.358E-01  0.358E-01
   0.565  0.394E-01  0.394E-01
   0.575  0.431E-01  0.431E-01
   0.585  0.467E-01  0.467E-01
   0.595  0.503E-01  0.503E-01
   0.605  0.538E-01  0.538E-01
   0.615  0.570E-01  0.570E-01
   0.625  0.601E-01  0.601E-01
   0.635  0.630E-01  0.630E-01
   0.645  0.656E-01  0.656E-01
   0.655  0.679E-01  0.679E-01
   0.665  0.699E-01  0.699E-01
   0.675  0.716E-01  0.716E-01
   0.685  0.729E-01  0.729E-01
   0.695  0.739E-01  0.739E-01
   0.705  0.746E-01  0.746E-01
   0.715  0.749E-01  0.749E-01
   0.725  0.749E-01  0.749E-01
   0.735  0.746E-01  0.746E-01
   0.745  0.740E-01  0.740E-01
   0.755  0.731E-01  0.731E-01
   0.765  0.720E-01  0.720E-01
   0.775  0.706E-01  0.706E-01
   0.785  0.690E-01  0.690E-01
   0.795  0.673E-01  0.673E-01
   0.805  0.655E-01  0.655E-01
   0.815  0.635E-01  0.635E-01
   0.825  0.615E-01  0.615E-01
   0.835  0.593E-01  0.593E-01
   0.845  0.572E-01  0.572E-01
   0.855  0.550E-01  0.550E-01
   0.865  0.528E-01  0.528E-01
   0.875  0.506E-01  0.506E-01
   0.885  0.483E-01  0.483E-01
   0.895  0.461E-01  0.461E-01
   0.905  0.439E-01  0.439E-01
   0.915  0.417E-01  0.417E-01
   0.925  0.396E-01  0.396E-01
   0.935  0.375E-01  0.375E-01
   0.945  0.355E-01  0.355E-01
   0.955  0.336E-01  0.336E-01
   0.965  0.319E-01  0.319E-01
   0.975  0.304E-01  0.304E-01
   0.985  0.290E-01  0.290E-01
   0.995  0.280E-01  0.280E-01
   1.005  0.272E-01  0.272E-01
   1.015  0.267E-01  0.267E-01
   1.025  0.265E-01  0.265E-01
   1.035  0.266E-01  0.266E-01
   1.045  0.270E-01  0.270E-01
   1.055  0.277E-01  0.277E-01
   1.065  0.286E-01  0.286E-01
   1.075  0.297E-01  0.297E-01
   1.085  0.310E-01  0.310E-01
   1.095  0.324E-01  0.324E-01
   1.105  0.338E-01  0.338E-01
   1.115  0.351E-01  0.351E-01
   1.125  0.363E-01  0.363E-01
   1.135  0.373E-01  0.373E-01
   1.145  0.380E-01  0.380E-01
   1.155  0.385E-01  0.385E-01
   1.165  0.386E-01  0.386E-01
   1.175  0.383E-01  0.383E-01
   1.185  0.377E-01  0.377E-01
   1.195  0.368E-01  0.368E-01
   1.205  0.355E-01  0.355E-01
   1.215  0.339E-01  0.339E-01
   1.225  0.321E-01  0.321E-01
   1.235  0.301E-01  0.301E-01
   1.245  0.279E-01  0.279E-01
   1.255  0.256E-01  0.256E-01
   1.265  0.233E-01  0.233E-01
   1.275  0.211E-01  0.211E-01
   1.285  0.190E-01  0.190E-01
   1.295  0.170E-01  0.170E-01
   1.305  0.152E-01  0.152E-01
   1.315  0.136E-01  0.136E-01
   1.325  0.123E-01  0.123E-01
   1.335  0.113E-01  0.113E-01
   1.345  0.106E-01  0.106E-01
   1.355  0.103E-01  0.103E-01
   1.365  0.103E-01  0.103E-01
   1.375  0.106E-01  0.106E-01
   1.385  0.114E-01  0.114E-01
   1.395  0.124E-01  0.124E-01
   1.405  0.138E-01  0.138E-01
   1.415  0.156E-01  0.156E-01
   1.425  0.176E-01  0.176E-01
   1.435  0.199E-01  0.199E-01
   1.445  0.224E-01  0.224E-01
   1.455  0.251E-01  0.251E-01
   1.465  0.279E-01  0.279E-01
   1.475  0.308E-01  0.308E-01
   1.485  0.337E-01  0.337E-01
   1.495  0.366E-01  0.366E-01
   1.505  0.393E-01  0.393E-01
   1.515  0.419E-01  0.419E-01
   1.525  0.442E-01  0.442E-01
   1.535  0.462E-01  0.462E-01
   1.545  0.480E-01  0.480E-01
   1.555  0.494E-01  0.494E-01
   1.565  0.505E-01  0.505E-01
   1.575  0.514E-01  0.514E-01
   1.585  0.519E-01  0.519E-01
   1.595  0.523E-01  0.523E-01
   1.605  0.525E-01  0.525E-01
   1.615  0.527E-01  0.527E-01
   1.625  0.528E-01  0.528E-01
   1.635  0.529E-01  0.529E-01
   1.645  0.532E-01  0.532E-01
   1.655  0.536E-01  0.536E-01
   1.665  0.542E-01  0.542E-01
   1.675  0.550E-01  0.550E-01
   1.685  0.560E-01  0.560E-01
   1.695  0.572E-01  0.572E-01
   1.705  0.585E-01  0.585E-01
   1.715  0.600E-01  0.600E-01
   1.725  0.615E-01  0.615E-01
   1.735  0.630E-01  0.630E-01
   1.745  0.644E-01  0.644E-01
   1.755  0.655E-01  0.655E-01
   1.765  0.664E-01  0.664E-01
   1.775  0.670E-01  0.670E-01
   1.785  0.672E-01  0.672E-01
   1.795  0.670E-01  0.670E-01
   1.805  0.663E-01  0.663E-01
   1.815  0.652E-01  0.652E-01
   1.825  0.636E-01  0.636E-01
   1.835  0.616E-01  0.616E-01
   1.845  0.592E-01  0.592E-01
   1.855  0.564E-01  0.564E-01
   1.865  0.534E-01  0.534E-01
   1.875  0.502E-01  0.502E-01
   1.885  0.469E-01  0.469E-01
   1.895  0.435E-01  0.435E-01
   1.905  0.401E-01  0.401E-01
   1.915  0.368E-01  0.368E-01
   1.925  0.336E-01  0.336E-01
   1.935  0.305E-01  0.305E-01
   1.945  0.276E-01  0.276E-01
   1.955  0.249E-01  0.249E-01
   1.965  0.224E-01  0.224E-01
   1.975  0.202E-01  0.202E-01
   1.985  0.182E-01  0.182E-01
   1.995  0.164E-01  0.164E-01
   2.005  0.148E-01  0.148E-01
   2.015  0.134E-01  0.134E-01
   2.025  0.122E-01  0.122E-01
   2.035  0.111E-01  0.111E-01
   2.045  0.102E-01  0.102E-01
   2.055  0.942E-02  0.942E-02
   2.065  0.878E-02  0.878E-02
   2.075  0.826E-02  0.826E-02
   2.085  0.788E-02  0.788E-02
   2.095  0.762E-02  0.762E-02
   2.105  0.750E-02  0.750E-02
   2.115  0.753E-02  0.753E-02
   2.125  0.773E-02  0.773E-02
   2.135  0.810E-02  0.810E-02
   2.145  0.868E-02  0.868E-02
   2.155  0.949E-02  0.949E-02
   2.165  0.105E-01  0.105E-01
   2.175  0.119E-01  0.119E-01
   2.185  0.135E-01  0.135E-01
   2.195  0.155E-01  0.155E-01
   2.205  0.178E-01  0.178E-01
   2.215  0.204E-01  0.204E-01
   2.225  0.234E-01  0.234E-01
   2.235  0.268E-01  0.268E-01
   2.245  0.306E-01  0.306E-01
   2.255  0.346E-01  0.346E-01
   2.265  0.389E-01  0.389E-01
   2.275  0.435E-01  0.435E-01
   2.285  0.482E-01  0.482E-01
   2.295  0.529E-01  0.529E-01
   2.305  0.576E-01  0.576E-01
   2.315  0.622E-01  0.622E-01
   2.325  0.666E-01  0.666E-01
   2.335  0.706E-01  0.706E-01
   2.345  0.741E-01  0.741E-01
   2.355  0.771E-01  0.771E-01
   2.365  0.794E-01  0.794E-01
   2.375  0.810E-01  0.810E-01
   2.385  0.818E-01  0.818E-01
   2.395  0.819E-01  0.819E-01
   2.405  0.811E-01  0.811E-01
   2.415  0.795E-01  0.795E-01
   2.425  0.773E-01  0.773E-01
   2.435  0.743E-01  0.743E-01
   2.445  0.707E-01  0.707E-01
   2.455  0.667E-01  0.667E-01
   2.465  0.623E-01  0.623E-01
   2.475  0.577E-01  0.577E-01
   2.485  0.529E-01  0.529E-01
   2.495  0.480E-01  0.480E-01
   2.505  0.433E-01  0.433E-01
   2.515  0.388E-01  0.388E-01
   2.525  0.345E-01  0.345E-01
   2.535  0.305E-01  0.305E-01
   2.545  0.270E-01  0.270E-01
   2.555  0.238E-01  0.238E-01
   2.565  0.211E-01  0.211E-01
   2.575  0.189E-01  0.189E-01
   2.585  0.171E-01  0.171E-01
   2.595  0.158E-01  0.158E-01
   2.605  0.149E-01  0.149E-01
   2.615  0.143E-01  0.143E-01
   2.625  0.142E-01  0.142E-01
   2.635  0.143E-01  0.143E-01
   2.645  0.148E-01  0.148E-01
   2.655  0.155E-01  0.155E-01
   2.665  0.164E-01  0.164E-01
   2.675  0.175E-01  0.175E-01
   2.685  0.187E-01  0.187E-01
   2.695  0.201E-01  0.201E-01
   2.705  0.215E-01  0.215E-01
   2.715  0.229E-01  0.229E-01
   2.725  0.243E-01  0.243E-01
   2.735  0.257E-01  0.257E-01
   2.745  0.271E-01  0.271E-01
   2.755  0.283E-01  0.283E-01
   2.765  0.295E-01  0.295E-01
   2.775  0.305E-01  0.305E-01
   2.785  0.313E-01  0.313E-01
   2.795  0.319E-01  0.319E-01
   2.805  0.323E-01  0.323E-01
   2.815  0.325E-01  0.325E-01
   2.825  0.324E-01  0.324E-01
   2.835  0.322E-01  0.322E-01
   2.845  0.317E-01  0.317E-01
   2.855  0.311E-01  0.311E-01
   2.865  0.303E-01  0.303E-01
   2.875  0.295E-01  0.295E-01
   2.885  0.285E-01  0.285E-01
   2.895  0.276E-01  0.276E-01
   2.905  0.267E-01  0.267E-01
   2.915  0.259E-01  0.259E-01
   2.925  0.252E-01  0.252E-01
   2.935  0.248E-01  0.248E-01
   2.945  0.247E-01  0.247E-01
   2.955  0.249E-01  0.249E-01
   2.965  0.254E-01  0.254E-01
   2.975  0.263E-01  0.263E-01
   2.985  0.276E-01  0.276E-01
   2.995  0.294E-01  0.294E-01
   3.005  0.315E-01  0.315E-01
   3.015  0.340E-01  0.340E-01
   3.025  0.369E-01  0.369E-01
   3.035  0.401E-01  0.401E-01
   3.045  0.435E-01  0.435E-01
   3.055  0.471E-01  0.471E-01
   3.065  0.508E-01  0.508E-01
   3.075  0.545E-01  0.545E-01
   3.085  0.582E-01  0.582E-01
   3.095  0.617E-01  0.617E-01
   3.105  0.649E-01  0.649E-01
   3.115  0.678E-01  0.678E-01
   3.125  0.702E-01  0.702E-01
   3.135  0.722E-01  0.722E-01
   3.145  0.736E-01  0.736E-01
   3.155  0.743E-01  0.743E-01
   3.165  0.745E-01  0.745E-01
   3.175  0.741E-01  0.741E-01
   3.185  0.730E-01  0.730E-01
   3.195  0.713E-01  0.713E-01
   3.205  0.690E-01  0.690E-01
   3.215  0.662E-01  0.662E-01
   3.225  0.630E-01  0.630E-01
   3.235  0.594E-01  0.594E-01
   3.245  0.555E-01  0.555E-01
   3.255  0.514E-01  0.514E-01
   3.265  0.472E-01  0.472E-01
   3.275  0.430E-01  0.430E-01
   3.285  0.388E-01  0.388E-01
   3.295  0.347E-01  0.347E-01
   3.305  0.308E-01  0.308E-01
   3.315  0.271E-01  0.271E-01
   3.325  0.237E-01  0.237E-01
   3.335  0.206E-01  0.206E-01
   3.345  0.177E-01  0.177E-01
   3.355  0.152E-01  0.152E-01
   3.365  0.130E-01  0.130E-01
   3.375  0.110E-01  0.110E-01
   3.385  0.934E-02  0.934E-02
   3.395  0.793E-02  0.793E-02
   3.405  0.674E-02  0.674E-02
   3.415  0.577E-02  0.577E-02
   3.425  0.497E-02  0.497E-02
   3.435  0.433E-02  0.433E-02
   3.445  0.384E-02  0.384E-02
   3.455  0.346E-02  0.346E-02
   3.465  0.319E-02  0.319E-02
   3.475  0.301E-02  0.301E-02
   3.485  0.292E-02  0.292E-02
   3.495  0.290E-02  0.290E-02
   3.505  0.296E-02  0.296E-02
   3.515  0.308E-02  0.308E-02
   3.525  0.328E-02  0.328E-02
   3.535  0.354E-02  0.354E-02
   3.545  0.387E-02  0.387E-02
   3.555  0.428E-02  0.428E-02
   3.565  0.476E-02  0.476E-02
   3.575  0.532E-02  0.532E-02
   3.585  0.596E-02  0.596E-02
   3.595  0.667E-02  0.667E-02
   3.605  0.746E-02  0.746E-02
   3.615  0.834E-02  0.834E-02
   3.625  0.930E-02  0.930E-02
   3.635  0.104E-01  0.104E-01
   3.645  0.115E-01  0.115E-01
   3.655  0.127E-01  0.127E-01
   3.665  0.141E-01  0.141E-01
   3.675  0.155E-01  0.155E-01
   3.685  0.171E-01  0.171E-01
   3.695  0.188E-01  0.188E-01
   3.705  0.207E-01  0.207E-01
   3.715  0.226E-01  0.226E-01
   3.725  0.248E-01  0.248E-01
   3.735  0.270E-01  0.270E-01
   3.745  0.294E-01  0.294E-01
   3.755  0.320E-01  0.320E-01
   3.765  0.346E-01  0.346E-01
   3.775  0.374E-01  0.374E-01
   3.785  0.401E-01  0.401E-01
   3.795  0.430E-01  0.430E-01
   3.805  0.457E-01  0.457E-01
   3.815  0.485E-01  0.485E-01
   3.825  0.511E-01  0.511E-01
   3.835  0.536E-01  0.536E-01
   3.845  0.559E-01  0.559E-01
   3.855  0.580E-01  0.580E-01
   3.865  0.598E-01  0.598E-01
   3.875  0.613E-01  0.613E-01
   3.885  0.625E-01  0.625E-01
   3.895  0.635E-01  0.635E-01
   3.905  0.641E-01  0.641E-01
   3.915  0.643E-01  0.643E-01
   3.925  0.642E-01  0.642E-01
   3.935  0.638E-01  0.638E-01
   3.945  0.631E-01  0.631E-01
   3.955  0.621E-01  0.621E-01
   3.965  0.607E-01  0.607E-01
   3.975  0.591E-01  0.591E-01
   3.985  0.572E-01  0.572E-01
   3.995  0.551E-01  0.551E-01
   4.005  0.528E-01  0.528E-01
   4.015  0.503E-01  0.503E-01
   4.025  0.476E-01  0.476E-01
   4.035  0.448E-01  0.448E-01
   4.045  0.420E-01  0.420E-01
   4.055  0.391E-01  0.391E-01
   4.065  0.362E-01  0.362E-01
   4.075  0.333E-01  0.333E-01
   4.085  0.305E-01  0.305E-01
   4.095  0.278E-01  0.278E-01
   4.105  0.253E-01  0.253E-01
   4.115  0.230E-01  0.230E-01
   4.125  0.208E-01  0.208E-01
   4.135  0.189E-01  0.189E-01
   4.145  0.172E-01  0.172E-01
   4.155  0.157E-01  0.157E-01
   4.165  0.144E-01  0.144E-01
   4.175  0.132E-01  0.132E-01
   4.185  0.123E-01  0.123E-01
   4.195  0.115E-01  0.115E-01
   4.205  0.109E-01  0.109E-01
   4.215  0.103E-01  0.103E-01
   4.225  0.979E-02  0.979E-02
   4.235  0.935E-02  0.935E-02
   4.245  0.894E-02  0.894E-02
   4.255  0.855E-02  0.855E-02
   4.265  0.815E-02  0.815E-02
   4.275  0.775E-02  0.775E-02
   4.285  0.733E-02  0.733E-02
   4.295  0.690E-02  0.690E-02
   4.305  0.646E-02  0.646E-02
   4.315  0.602E-02  0.602E-02
   4.325  0.558E-02  0.558E-02
   4.335  0.515E-02  0.515E-02
   4.345  0.475E-02  0.475E-02
   4.355  0.439E-02  0.439E-02
   4.365  0.407E-02  0.407E-02
   4.375  0.383E-02  0.383E-02
   4.385  0.366E-02  0.366E-02
   4.395  0.358E-02  0.358E-02
   4.405  0.360E-02  0.360E-02
   4.415  0.373E-02  0.373E-02
   4.425  0.398E-02  0.398E-02
   4.435  0.435E-02  0.435E-02
   4.445  0.486E-02  0.486E-02
   4.455  0.550E-02  0.550E-02
   4.465  0.627E-02  0.627E-02
   4.475  0.717E-02  0.717E-02
   4.485  0.820E-02  0.820E-02
   4.495  0.935E-02  0.935E-02
   4.505  0.106E-01  0.106E-01
   4.515  0.119E-01  0.119E-01
   4.525  0.133E-01  0.133E-01
   4.535  0.148E-01  0.148E-01
   4.545  0.163E-01  0.163E-01
   4.555  0.178E-01  0.178E-01
   4.565  0.193E-01  0.193E-01
   4.575  0.208E-01  0.208E-01
   4.585  0.223E-01  0.223E-01
   4.595  0.237E-01  0.237E-01
   4.605  0.250E-01  0.250E-01
   4.615  0.264E-01  0.264E-01
   4.625  0.276E-01  0.276E-01
   4.635  0.288E-01  0.288E-01
   4.645  0.300E-01  0.300E-01
   4.655  0.311E-01  0.311E-01
   4.665  0.322E-01  0.322E-01
   4.675  0.333E-01  0.333E-01
   4.685  0.343E-01  0.343E-01
   4.695  0.354E-01  0.354E-01
   4.705  0.364E-01  0.364E-01
   4.715  0.374E-01  0.374E-01
   4.725  0.383E-01  0.383E-01
   4.735  0.391E-01  0.391E-01
   4.745  0.399E-01  0.399E-01
   4.755  0.406E-01  0.406E-01
   4.765  0.411E-01  0.411E-01
   4.775  0.415E-01  0.415E-01
   4.785  0.417E-01  0.417E-01
   4.795  0.417E-01  0.417E-01
   4.805  0.415E-01  0.415E-01
   4.815  0.411E-01  0.411E-01
   4.825  0.406E-01  0.406E-01
   4.835  0.398E-01  0.398E-01
   4.845  0.390E-01  0.390E-01
   4.855  0.379E-01  0.379E-01
   4.865  0.368E-01  0.368E-01
   4.875  0.355E-01  0.355E-01
   4.885  0.341E-01  0.341E-01
   4.895  0.327E-01  0.327E-01
   4.905  0.312E-01  0.312E-01
   4.915  0.297E-01  0.297E-01
   4.925  0.282E-01  0.282E-01
   4.935  0.266E-01  0.266E-01
   4.945  0.250E-01  0.250E-01
   4.955  0.234E-01  0.234E-01
   4.965  0.218E-01  0.218E-01
   4.975  0.202E-01  0.202E-01
   4.985  0.187E-01  0.187E-01
   4.995  0.171E-01  0.171E-01
   5.005  0.156E-01  0.156E-01
   5.015  0.141E-01  0.141E-01
   5.025  0.127E-01  0.127E-01
   5.035  0.114E-01  0.114E-01
   5.045  0.101E-01  0.101E-01
   5.055  0.886E-02  0.886E-02
   5.065  0.775E-02  0.775E-02
   5.075  0.673E-02  0.673E-02
   5.085  0.583E-02  0.583E-02
   5.095  0.503E-02  0.503E-02
   5.105  0.434E-02  0.434E-02
   5.115  0.377E-02  0.377E-02
   5.125  0.332E-02  0.332E-02
   5.135  0.299E-02  0.299E-02
   5.145  0.278E-02  0.278E-02
   5.155  0.269E-02  0.269E-02
   5.165  0.272E-02  0.272E-02
   5.175  0.287E-02  0.287E-02
   5.185  0.314E-02  0.314E-02
   5.195  0.352E-02  0.352E-02
   5.205  0.403E-02  0.403E-02
   5.215  0.466E-02  0.466E-02
   5.225  0.540E-02  0.540E-02
   5.235  0.625E-02  0.625E-02
   5.245  0.721E-02  0.721E-02
   5.255  0.827E-02  0.827E-02
   5.265  0.941E-02  0.941E-02
   5.275  0.106E-01  0.106E-01
   5.285  0.119E-01  0.119E-01
   5.295  0.132E-01  0.132E-01
   5.305  0.146E-01  0.146E-01
   5.315  0.159E-01  0.159E-01
   5.325  0.173E-01  0.173E-01
   5.335  0.186E-01  0.186E-01
   5.345  0.199E-01  0.199E-01
   5.355  0.211E-01  0.211E-01
   5.365  0.223E-01  0.223E-01
   5.375  0.233E-01  0.233E-01
   5.385  0.243E-01  0.243E-01
   5.395  0.251E-01  0.251E-01
   5.405  0.258E-01  0.258E-01
   5.415  0.264E-01  0.264E-01
   5.425  0.269E-01  0.269E-01
   5.435  0.273E-01  0.273E-01
   5.445  0.275E-01  0.275E-01
   5.455  0.275E-01  0.275E-01
   5.465  0.274E-01  0.274E-01
   5.475  0.272E-01  0.272E-01
   5.485  0.268E-01  0.268E-01
   5.495  0.263E-01  0.263E-01
   5.505  0.256E-01  0.256E-01
   5.515  0.248E-01  0.248E-01
   5.525  0.238E-01  0.238E-01
   5.535  0.227E-01  0.227E-01
   5.545  0.215E-01  0.215E-01
   5.555  0.202E-01  0.202E-01
   5.565  0.189E-01  0.189E-01
   5.575  0.175E-01  0.175E-01
   5.585  0.160E-01  0.160E-01
   5.595  0.146E-01  0.146E-01
   5.605  0.132E-01  0.132E-01
   5.615  0.118E-01  0.118E-01
   5.625  0.105E-01  0.105E-01
   5.635  0.933E-02  0.933E-02
   5.645  0.823E-02  0.823E-02
   5.655  0.724E-02  0.724E-02
   5.665  0.637E-02  0.637E-02
   5.675  0.564E-02  0.564E-02
   5.685  0.504E-02  0.504E-02
   5.695  0.458E-02  0.458E-02
   5.705  0.425E-02  0.425E-02
   5.715  0.405E-02  0.405E-02
   5.725  0.398E-02  0.398E-02
   5.735  0.401E-02  0.401E-02
   5.745  0.414E-02  0.414E-02
   5.755  0.437E-02  0.437E-02
   5.765  0.468E-02  0.468E-02
   5.775  0.505E-02  0.505E-02
   5.785  0.547E-02  0.547E-02
   5.795  0.594E-02  0.594E-02
   5.805  0.643E-02  0.643E-02
   5.815  0.693E-02  0.693E-02
   5.825  0.744E-02  0.744E-02
   5.835  0.794E-02  0.794E-02
   5.845  0.842E-02  0.842E-02
   5.855  0.888E-02  0.888E-02
   5.865  0.931E-02  0.931E-02
   5.875  0.972E-02  0.972E-02
   5.885  0.101E-01  0.101E-01
   5.895  0.104E-01  0.104E-01
   5.905  0.108E-01  0.108E-01
   5.915  0.111E-01  0.111E-01
   5.925  0.114E-01  0.114E-01
   5.935  0.116E-01  0.116E-01
   5.945  0.119E-01  0.119E-01
   5.955  0.122E-01  0.122E-01
   5.965  0.124E-01  0.124E-01
   5.975  0.127E-01  0.127E-01
   5.985  0.129E-01  0.129E-01
   5.995  0.131E-01  0.131E-01
   6.005  0.133E-01  0.133E-01
   6.015  0.135E-01  0.135E-01
   6.025  0.136E-01  0.136E-01
   6.035  0.137E-01  0.137E-01
   6.045  0.137E-01  0.137E-01
   6.055  0.136E-01  0.136E-01
   6.065  0.135E-01  0.135E-01
   6.075  0.132E-01  0.132E-01
   6.085  0.129E-01  0.129E-01
   6.095  0.125E-01  0.125E-01
   6.105  0.120E-01  0.120E-01
   6.115  0.115E-01  0.115E-01
   6.125  0.108E-01  0.108E-01
   6.135  0.102E-01  0.102E-01
   6.145  0.943E-02  0.943E-02
   6.155  0.868E-02  0.868E-02
   6.165  0.792E-02  0.792E-02
   6.175  0.716E-02  0.716E-02
   6.185  0.641E-02  0.641E-02
   6.195  0.568E-02  0.568E-02
   6.205  0.499E-02  0.499E-02
   6.215  0.435E-02  0.435E-02
   6.225  0.375E-02  0.375E-02
   6.235  0.320E-02  0.320E-02
   6.245  0.272E-02  0.272E-02
   6.255  0.229E-02  0.229E-02
   6.265  0.192E-02  0.192E-02
   6.275  0.160E-02  0.160E-02
   6.285  0.135E-02  0.135E-02
   6.295  0.115E-02  0.115E-02
   6.305  0.100E-02  0.100E-02
   6.315  0.918E-03  0.918E-03
   6.325  0.896E-03  0.896E-03
   6.335  0.941E-03  0.941E-03
   6.345  0.106E-02  0.106E-02
   6.355  0.127E-02  0.127E-02
   6.365  0.159E-02  0.159E-02
   6.375  0.203E-02  0.203E-02
   6.385  0.261E-02  0.261E-02
   6.395  0.337E-02  0.337E-02
   6.405  0.434E-02  0.434E-02
   6.415  0.555E-02  0.555E-02
   6.425  0.705E-02  0.705E-02
   6.435  0.887E-02  0.887E-02
   6.445  0.111E-01  0.111E-01
   6.455  0.137E-01  0.137E-01
   6.465  0.167E-01  0.167E-01
   6.475  0.203E-01  0.203E-01
   6.485  0.243E-01  0.243E-01
   6.495  0.289E-01  0.289E-01
   6.505  0.341E-01  0.341E-01
   6.515  0.398E-01  0.398E-01
   6.525  0.461E-01  0.461E-01
   6.535  0.528E-01  0.528E-01
   6.545  0.601E-01  0.601E-01
   6.555  0.677E-01  0.677E-01
   6.565  0.757E-01  0.757E-01
   6.575  0.838E-01  0.838E-01
   6.585  0.922E-01  0.922E-01
   6.595  0.100E+00  0.100E+00
   6.605  0.109E+00  0.109E+00
   6.615  0.117E+00  0.117E+00
   6.625  0.125E+00  0.125E+00
   6.635  0.132E+00  0.132E+00
   6.645  0.139E+00  0.139E+00
   6.655  0.145E+00  0.145E+00
   6.665  0.150E+00  0.150E+00
   6.675  0.155E+00  0.155E+00
   6.685  0.159E+00  0.159E+00
   6.695  0.162E+00  0.162E+00
   6.705  0.165E+00  0.165E+00
   6.715  0.167E+00  0.167E+00
   6.725  0.168E+00  0.168E+00
   6.735  0.168E+00  0.168E+00
   6.745  0.168E+00  0.168E+00
   6.755  0.167E+00  0.167E+00
   6.765  0.166E+00  0.166E+00
   6.775  0.165E+00  0.165E+00
   6.785  0.163E+00  0.163E+00
   6.795  0.162E+00  0.162E+00
   6.805  0.160E+00  0.160E+00
   6.815  0.158E+00  0.158E+00
   6.825  0.156E+00  0.156E+00
   6.835  0.155E+00  0.155E+00
   6.845  0.153E+00  0.153E+00
   6.855  0.151E+00  0.151E+00
   6.865  0.150E+00  0.150E+00
   6.875  0.148E+00  0.148E+00
   6.885  0.146E+00  0.146E+00
   6.895  0.145E+00  0.145E+00
   6.905  0.143E+00  0.143E+00
   6.915  0.141E+00  0.141E+00
   6.925  0.138E+00  0.138E+00
   6.935  0.136E+00  0.136E+00
   6.945  0.133E+00  0.133E+00
   6.955  0.130E+00  0.130E+00
   6.965  0.127E+00  0.127E+00
   6.975  0.123E+00  0.123E+00
   6.985  0.119E+00  0.119E+00
   6.995  0.115E+00  0.115E+00
   7.005  0.111E+00  0.111E+00
   7.015  0.107E+00  0.107E+00
   7.025  0.102E+00  0.102E+00
   7.035  0.976E-01  0.976E-01
   7.045  0.932E-01  0.932E-01
   7.055  0.889E-01  0.889E-01
   7.065  0.849E-01  0.849E-01
   7.075  0.811E-01  0.811E-01
   7.085  0.778E-01  0.778E-01
   7.095  0.749E-01  0.749E-01
   7.105  0.725E-01  0.725E-01
   7.115  0.707E-01  0.707E-01
   7.125  0.695E-01  0.695E-01
   7.135  0.689E-01  0.689E-01
   7.145  0.690E-01  0.690E-01
   7.155  0.698E-01  0.698E-01
   7.165  0.711E-01  0.711E-01
   7.175  0.731E-01  0.731E-01
   7.185  0.756E-01  0.756E-01
   7.195  0.785E-01  0.785E-01
   7.205  0.818E-01  0.818E-01
   7.215  0.854E-01  0.854E-01
   7.225  0.890E-01  0.890E-01
   7.235  0.928E-01  0.928E-01
   7.245  0.964E-01  0.964E-01
   7.255  0.998E-01  0.998E-01
   7.265  0.103E+00  0.103E+00
   7.275  0.106E+00  0.106E+00
   7.285  0.108E+00  0.108E+00
   7.295  0.110E+00  0.110E+00
   7.305  0.111E+00  0.111E+00
   7.315  0.112E+00  0.112E+00
   7.325  0.112E+00  0.112E+00
   7.335  0.112E+00  0.112E+00
   7.345  0.111E+00  0.111E+00
   7.355  0.110E+00  0.110E+00
   7.365  0.109E+00  0.109E+00
   7.375  0.107E+00  0.107E+00
   7.385  0.106E+00  0.106E+00
   7.395  0.105E+00  0.105E+00
   7.405  0.103E+00  0.103E+00
   7.415  0.102E+00  0.102E+00
   7.425  0.102E+00  0.102E+00
   7.435  0.101E+00  0.101E+00
   7.445  0.102E+00  0.102E+00
   7.455  0.102E+00  0.102E+00
   7.465  0.104E+00  0.104E+00
   7.475  0.106E+00  0.106E+00
   7.485  0.109E+00  0.109E+00
   7.495  0.112E+00  0.112E+00
   7.505  0.117E+00  0.117E+00
   7.515  0.122E+00  0.122E+00
   7.525  0.128E+00  0.128E+00
   7.535  0.136E+00  0.136E+00
   7.545  0.144E+00  0.144E+00
   7.555  0.153E+00  0.153E+00
   7.565  0.163E+00  0.163E+00
   7.575  0.173E+00  0.173E+00
   7.585  0.184E+00  0.184E+00
   7.595  0.195E+00  0.195E+00
   7.605  0.206E+00  0.206E+00
   7.615  0.218E+00  0.218E+00
   7.625  0.228E+00  0.228E+00
   7.635  0.239E+00  0.239E+00
   7.645  0.248E+00  0.248E+00
   7.655  0.256E+00  0.256E+00
   7.665  0.263E+00  0.263E+00
   7.675  0.269E+00  0.269E+00
   7.685  0.273E+00  0.273E+00
   7.695  0.275E+00  0.275E+00
   7.705  0.276E+00  0.276E+00
   7.715  0.275E+00  0.275E+00
   7.725  0.272E+00  0.272E+00
   7.735  0.268E+00  0.268E+00
   7.745  0.262E+00  0.262E+00
   7.755  0.255E+00  0.255E+00
   7.765  0.248E+00  0.248E+00
   7.775  0.240E+00  0.240E+00
   7.785  0.231E+00  0.231E+00
   7.795  0.222E+00  0.222E+00
   7.805  0.213E+00  0.213E+00
   7.815  0.203E+00  0.203E+00
   7.825  0.195E+00  0.195E+00
   7.835  0.186E+00  0.186E+00
   7.845  0.178E+00  0.178E+00
   7.855  0.171E+00  0.171E+00
   7.865  0.164E+00  0.164E+00
   7.875  0.158E+00  0.158E+00
   7.885  0.153E+00  0.153E+00
   7.895  0.148E+00  0.148E+00
   7.905  0.144E+00  0.144E+00
   7.915  0.141E+00  0.141E+00
   7.925  0.139E+00  0.139E+00
   7.935  0.137E+00  0.137E+00
   7.945  0.136E+00  0.136E+00
   7.955  0.135E+00  0.135E+00
   7.965  0.135E+00  0.135E+00
   7.975  0.135E+00  0.135E+00
   7.985  0.135E+00  0.135E+00
   7.995  0.135E+00  0.135E+00
   8.005  0.136E+00  0.136E+00
   8.015  0.137E+00  0.137E+00
   8.025  0.137E+00  0.137E+00
   8.035  0.138E+00  0.138E+00
   8.045  0.139E+00  0.139E+00
   8.055  0.139E+00  0.139E+00
   8.065  0.139E+00  0.139E+00
   8.075  0.139E+00  0.139E+00
   8.085  0.139E+00  0.139E+00
   8.095  0.139E+00  0.139E+00
   8.105  0.139E+00  0.139E+00
   8.115  0.139E+00  0.139E+00
   8.125  0.138E+00  0.138E+00
   8.135  0.137E+00  0.137E+00
   8.145  0.137E+00  0.137E+00
   8.155  0.136E+00  0.136E+00
   8.165  0.135E+00  0.135E+00
   8.175  0.134E+00  0.134E+00
   8.185  0.133E+00  0.133E+00
   8.195  0.132E+00  0.132E+00
   8.205  0.131E+00  0.131E+00
   8.215  0.129E+00  0.129E+00
   8.225  0.128E+00  0.128E+00
   8.235  0.126E+00  0.126E+00
   8.245  0.123E+00  0.123E+00
   8.255  0.121E+00  0.121E+00
   8.265  0.118E+00  0.118E+00
   8.275  0.115E+00  0.115E+00
   8.285  0.113E+00  0.113E+00
   8.295  0.110E+00  0.110E+00
   8.305  0.107E+00  0.107E+00
   8.315  0.105E+00  0.105E+00
   8.325  0.102E+00  0.102E+00
   8.335  0.100E+00  0.100E+00
   8.345  0.987E-01  0.987E-01
   8.355  0.973E-01  0.973E-01
   8.365  0.962E-01  0.962E-01
   8.375  0.954E-01  0.954E-01
   8.385  0.949E-01  0.949E-01
   8.395  0.946E-01  0.946E-01
   8.405  0.943E-01  0.943E-01
   8.415  0.941E-01  0.941E-01
   8.425  0.938E-01  0.938E-01
   8.435  0.934E-01  0.934E-01
   8.445  0.927E-01  0.927E-01
   8.455  0.918E-01  0.918E-01
   8.465  0.905E-01  0.905E-01
   8.475  0.889E-01  0.889E-01
   8.485  0.869E-01  0.869E-01
   8.495  0.846E-01  0.846E-01
   8.505  0.821E-01  0.821E-01
   8.515  0.793E-01  0.793E-01
   8.525  0.764E-01  0.764E-01
   8.535  0.736E-01  0.736E-01
   8.545  0.708E-01  0.708E-01
   8.555  0.682E-01  0.682E-01
   8.565  0.659E-01  0.659E-01
   8.575  0.640E-01  0.640E-01
   8.585  0.626E-01  0.626E-01
   8.595  0.616E-01  0.616E-01
   8.605  0.613E-01  0.613E-01
   8.615  0.615E-01  0.615E-01
   8.625  0.623E-01  0.623E-01
   8.635  0.637E-01  0.637E-01
   8.645  0.655E-01  0.655E-01
   8.655  0.678E-01  0.678E-01
   8.665  0.705E-01  0.705E-01
   8.675  0.734E-01  0.734E-01
   8.685  0.765E-01  0.765E-01
   8.695  0.797E-01  0.797E-01
   8.705  0.829E-01  0.829E-01
   8.715  0.859E-01  0.859E-01
   8.725  0.888E-01  0.888E-01
   8.735  0.913E-01  0.913E-01
   8.745  0.935E-01  0.935E-01
   8.755  0.952E-01  0.952E-01
   8.765  0.966E-01  0.966E-01
   8.775  0.974E-01  0.974E-01
   8.785  0.978E-01  0.978E-01
   8.795  0.978E-01  0.978E-01
   8.805  0.973E-01  0.973E-01
   8.815  0.965E-01  0.965E-01
   8.825  0.955E-01  0.955E-01
   8.835  0.942E-01  0.942E-01
   8.845  0.928E-01  0.928E-01
   8.855  0.914E-01  0.914E-01
   8.865  0.901E-01  0.901E-01
   8.875  0.889E-01  0.889E-01
   8.885  0.880E-01  0.880E-01
   8.895  0.874E-01  0.874E-01
   8.905  0.871E-01  0.871E-01
   8.915  0.872E-01  0.872E-01
   8.925  0.878E-01  0.878E-01
   8.935  0.888E-01  0.888E-01
   8.945  0.902E-01  0.902E-01
   8.955  0.920E-01  0.920E-01
   8.965  0.941E-01  0.941E-01
   8.975  0.965E-01  0.965E-01
   8.985  0.992E-01  0.992E-01
   8.995  0.102E+00  0.102E+00
   9.005  0.105E+00  0.105E+00
   9.015  0.108E+00  0.108E+00
   9.025  0.111E+00  0.111E+00
   9.035  0.114E+00  0.114E+00
   9.045  0.117E+00  0.117E+00
   9.055  0.120E+00  0.120E+00
   9.065  0.123E+00  0.123E+00
   9.075  0.126E+00  0.126E+00
   9.085  0.128E+00  0.128E+00
   9.095  0.130E+00  0.130E+00
   9.105  0.131E+00  0.131E+00
   9.115  0.132E+00  0.132E+00
   9.125  0.133E+00  0.133E+00
   9.135  0.133E+00  0.133E+00
   9.145  0.133E+00  0.133E+00
   9.155  0.132E+00  0.132E+00
   9.165  0.130E+00  0.130E+00
   9.175  0.128E+00  0.128E+00
   9.185  0.125E+00  0.125E+00
   9.195  0.122E+00  0.122E+00
   9.205  0.118E+00  0.118E+00
   9.215  0.114E+00  0.114E+00
   9.225  0.110E+00  0.110E+00
   9.235  0.105E+00  0.105E+00
   9.245  0.101E+00  0.101E+00
   9.255  0.966E-01  0.966E-01
   9.265  0.929E-01  0.929E-01
   9.275  0.899E-01  0.899E-01
   9.285  0.877E-01  0.877E-01
   9.295  0.865E-01  0.865E-01
   9.305  0.866E-01  0.866E-01
   9.315  0.879E-01  0.879E-01
   9.325  0.907E-01  0.907E-01
   9.335  0.950E-01  0.950E-01
   9.345  0.101E+00  0.101E+00
   9.355  0.108E+00  0.108E+00
   9.365  0.117E+00  0.117E+00
   9.375  0.127E+00  0.127E+00
   9.385  0.138E+00  0.138E+00
   9.395  0.149E+00  0.149E+00
   9.405  0.161E+00  0.161E+00
   9.415  0.174E+00  0.174E+00
   9.425  0.186E+00  0.186E+00
   9.435  0.198E+00  0.198E+00
   9.445  0.209E+00  0.209E+00
   9.455  0.219E+00  0.219E+00
   9.465  0.228E+00  0.228E+00
   9.475  0.235E+00  0.235E+00
   9.485  0.241E+00  0.241E+00
   9.495  0.245E+00  0.245E+00
   9.505  0.247E+00  0.247E+00
   9.515  0.248E+00  0.248E+00
   9.525  0.248E+00  0.248E+00
   9.535  0.246E+00  0.246E+00
   9.545  0.244E+00  0.244E+00
   9.555  0.241E+00  0.241E+00
   9.565  0.239E+00  0.239E+00
   9.575  0.236E+00  0.236E+00
   9.585  0.234E+00  0.234E+00
   9.595  0.232E+00  0.232E+00
   9.605  0.232E+00  0.232E+00
   9.615  0.232E+00  0.232E+00
   9.625  0.234E+00  0.234E+00
   9.635  0.236E+00  0.236E+00
   9.645  0.240E+00  0.240E+00
   9.655  0.244E+00  0.244E+00
   9.665  0.249E+00  0.249E+00
   9.675  0.254E+00  0.254E+00
   9.685  0.259E+00  0.259E+00
   9.695  0.263E+00  0.263E+00
   9.705  0.267E+00  0.267E+00
   9.715  0.270E+00  0.270E+00
   9.725  0.271E+00  0.271E+00
   9.735  0.271E+00  0.271E+00
   9.745  0.269E+00  0.269E+00
   9.755  0.265E+00  0.265E+00
   9.765  0.260E+00  0.260E+00
   9.775  0.253E+00  0.253E+00
   9.785  0.245E+00  0.245E+00
   9.795  0.234E+00  0.234E+00
   9.805  0.223E+00  0.223E+00
   9.815  0.211E+00  0.211E+00
   9.825  0.197E+00  0.197E+00
   9.835  0.184E+00  0.184E+00
   9.845  0.169E+00  0.169E+00
   9.855  0.155E+00  0.155E+00
   9.865  0.141E+00  0.141E+00
   9.875  0.128E+00  0.128E+00
   9.885  0.114E+00  0.114E+00
   9.895  0.102E+00  0.102E+00
   9.905  0.905E-01  0.905E-01
   9.915  0.799E-01  0.799E-01
   9.925  0.703E-01  0.703E-01
   9.935  0.617E-01  0.617E-01
   9.945  0.543E-01  0.543E-01
   9.955  0.479E-01  0.479E-01
   9.965  0.426E-01  0.426E-01
   9.975  0.384E-01  0.384E-01
   9.985  0.352E-01  0.352E-01
   9.995  0.330E-01  0.330E-01
  10.005  0.319E-01  0.319E-01
  10.015  0.317E-01  0.317E-01
  10.025  0.324E-01  0.324E-01
  10.035  0.341E-01  0.341E-01
  10.045  0.367E-01  0.367E-01
  10.055  0.401E-01  0.401E-01
  10.065  0.444E-01  0.444E-01
  10.075  0.495E-01  0.495E-01
  10.085  0.553E-01  0.553E-01
  10.095  0.619E-01  0.619E-01
  10.105  0.692E-01  0.692E-01
  10.115  0.771E-01  0.771E-01
  10.125  0.855E-01  0.855E-01
  10.135  0.943E-01  0.943E-01
  10.145  0.103E+00  0.103E+00
  10.155  0.113E+00  0.113E+00
  10.165  0.122E+00  0.122E+00
  10.175  0.131E+00  0.131E+00
  10.185  0.139E+00  0.139E+00
  10.195  0.147E+00  0.147E+00
  10.205  0.154E+00  0.154E+00
  10.215  0.161E+00  0.161E+00
  10.225  0.166E+00  0.166E+00
  10.235  0.170E+00  0.170E+00
  10.245  0.173E+00  0.173E+00
  10.255  0.174E+00  0.174E+00
  10.265  0.174E+00  0.174E+00
  10.275  0.173E+00  0.173E+00
  10.285  0.171E+00  0.171E+00
  10.295  0.167E+00  0.167E+00
  10.305  0.162E+00  0.162E+00
  10.315  0.157E+00  0.157E+00
  10.325  0.151E+00  0.151E+00
  10.335  0.144E+00  0.144E+00
  10.345  0.137E+00  0.137E+00
  10.355  0.130E+00  0.130E+00
  10.365  0.122E+00  0.122E+00
  10.375  0.116E+00  0.116E+00
  10.385  0.109E+00  0.109E+00
  10.395  0.104E+00  0.104E+00
  10.405  0.992E-01  0.992E-01
  10.415  0.954E-01  0.954E-01
  10.425  0.926E-01  0.926E-01
  10.435  0.908E-01  0.908E-01
  10.445  0.901E-01  0.901E-01
  10.455  0.904E-01  0.904E-01
  10.465  0.918E-01  0.918E-01
  10.475  0.939E-01  0.939E-01
  10.485  0.968E-01  0.968E-01
  10.495  0.100E+00  0.100E+00
  10.505  0.104E+00  0.104E+00
  10.515  0.108E+00  0.108E+00
  10.525  0.113E+00  0.113E+00
  10.535  0.117E+00  0.117E+00
  10.545  0.121E+00  0.121E+00
  10.555  0.124E+00  0.124E+00
  10.565  0.127E+00  0.127E+00
  10.575  0.129E+00  0.129E+00
  10.585  0.130E+00  0.130E+00
  10.595  0.130E+00  0.130E+00
  10.605  0.130E+00  0.130E+00
  10.615  0.128E+00  0.128E+00
  10.625  0.126E+00  0.126E+00
  10.635  0.123E+00  0.123E+00
  10.645  0.120E+00  0.120E+00
  10.655  0.115E+00  0.115E+00
  10.665  0.111E+00  0.111E+00
  10.675  0.106E+00  0.106E+00
  10.685  0.101E+00  0.101E+00
  10.695  0.962E-01  0.962E-01
  10.705  0.913E-01  0.913E-01
  10.715  0.867E-01  0.867E-01
  10.725  0.823E-01  0.823E-01
  10.735  0.782E-01  0.782E-01
  10.745  0.746E-01  0.746E-01
  10.755  0.712E-01  0.712E-01
  10.765  0.683E-01  0.683E-01
  10.775  0.657E-01  0.657E-01
  10.785  0.634E-01  0.634E-01
  10.795  0.613E-01  0.613E-01
  10.805  0.595E-01  0.595E-01
  10.815  0.580E-01  0.580E-01
  10.825  0.566E-01  0.566E-01
  10.835  0.554E-01  0.554E-01
  10.845  0.544E-01  0.544E-01
  10.855  0.535E-01  0.535E-01
  10.865  0.529E-01  0.529E-01
  10.875  0.524E-01  0.524E-01
  10.885  0.522E-01  0.522E-01
  10.895  0.522E-01  0.522E-01
  10.905  0.525E-01  0.525E-01
  10.915  0.531E-01  0.531E-01
  10.925  0.540E-01  0.540E-01
  10.935  0.553E-01  0.553E-01
  10.945  0.568E-01  0.568E-01
  10.955  0.586E-01  0.586E-01
  10.965  0.606E-01  0.606E-01
  10.975  0.628E-01  0.628E-01
  10.985  0.651E-01  0.651E-01
  10.995  0.674E-01  0.674E-01
  11.005  0.696E-01  0.696E-01
  11.015  0.717E-01  0.717E-01
  11.025  0.736E-01  0.736E-01
  11.035  0.751E-01  0.751E-01
  11.045  0.763E-01  0.763E-01
  11.055  0.770E-01  0.770E-01
  11.065  0.772E-01  0.772E-01
  11.075  0.768E-01  0.768E-01
  11.085  0.759E-01  0.759E-01
  11.095  0.744E-01  0.744E-01
  11.105  0.724E-01  0.724E-01
  11.115  0.698E-01  0.698E-01
  11.125  0.668E-01  0.668E-01
  11.135  0.634E-01  0.634E-01
  11.145  0.597E-01  0.597E-01
  11.155  0.558E-01  0.558E-01
  11.165  0.517E-01  0.517E-01
  11.175  0.475E-01  0.475E-01
  11.185  0.433E-01  0.433E-01
  11.195  0.393E-01  0.393E-01
  11.205  0.354E-01  0.354E-01
  11.215  0.318E-01  0.318E-01
  11.225  0.285E-01  0.285E-01
  11.235  0.255E-01  0.255E-01
  11.245  0.228E-01  0.228E-01
  11.255  0.206E-01  0.206E-01
  11.265  0.188E-01  0.188E-01
  11.275  0.174E-01  0.174E-01
  11.285  0.164E-01  0.164E-01
  11.295  0.159E-01  0.159E-01
  11.305  0.158E-01  0.158E-01
  11.315  0.160E-01  0.160E-01
  11.325  0.166E-01  0.166E-01
  11.335  0.176E-01  0.176E-01
  11.345  0.190E-01  0.190E-01
  11.355  0.206E-01  0.206E-01
  11.365  0.226E-01  0.226E-01
  11.375  0.249E-01  0.249E-01
  11.385  0.275E-01  0.275E-01
  11.395  0.303E-01  0.303E-01
  11.405  0.335E-01  0.335E-01
  11.415  0.368E-01  0.368E-01
  11.425  0.404E-01  0.404E-01
  11.435  0.442E-01  0.442E-01
  11.445  0.482E-01  0.482E-01
  11.455  0.524E-01  0.524E-01
  11.465  0.567E-01  0.567E-01
  11.475  0.612E-01  0.612E-01
  11.485  0.657E-01  0.657E-01
  11.495  0.703E-01  0.703E-01
  11.505  0.748E-01  0.748E-01
  11.515  0.793E-01  0.793E-01
  11.525  0.836E-01  0.836E-01
  11.535  0.877E-01  0.877E-01
  11.545  0.916E-01  0.916E-01
  11.555  0.951E-01  0.951E-01
  11.565  0.982E-01  0.982E-01
  11.575  0.101E+00  0.101E+00
  11.585  0.103E+00  0.103E+00
  11.595  0.105E+00  0.105E+00
  11.605  0.106E+00  0.106E+00
  11.615  0.107E+00  0.107E+00
  11.625  0.108E+00  0.108E+00
  11.635  0.108E+00  0.108E+00
  11.645  0.108E+00  0.108E+00
  11.655  0.108E+00  0.108E+00
  11.665  0.107E+00  0.107E+00
  11.675  0.106E+00  0.106E+00
  11.685  0.105E+00  0.105E+00
  11.695  0.104E+00  0.104E+00
  11.705  0.103E+00  0.103E+00
  11.715  0.102E+00  0.102E+00
  11.725  0.101E+00  0.101E+00
  11.735  0.100E+00  0.100E+00
  11.745  0.990E-01  0.990E-01
  11.755  0.978E-01  0.978E-01
  11.765  0.964E-01  0.964E-01
  11.775  0.950E-01  0.950E-01
  11.785  0.935E-01  0.935E-01
  11.795  0.919E-01  0.919E-01
  11.805  0.903E-01  0.903E-01
  11.815  0.886E-01  0.886E-01
  11.825  0.870E-01  0.870E-01
  11.835  0.854E-01  0.854E-01
  11.845  0.840E-01  0.840E-01
  11.855  0.827E-01  0.827E-01
  11.865  0.816E-01  0.816E-01
  11.875  0.809E-01  0.809E-01
  11.885  0.803E-01  0.803E-01
  11.895  0.801E-01  0.801E-01
  11.905  0.802E-01  0.802E-01
  11.915  0.806E-01  0.806E-01
  11.925  0.812E-01  0.812E-01
  11.935  0.819E-01  0.819E-01
  11.945  0.828E-01  0.828E-01
  11.955  0.836E-01  0.836E-01
  11.965  0.845E-01  0.845E-01
  11.975  0.851E-01  0.851E-01
  11.985  0.855E-01  0.855E-01
  11.995  0.856E-01  0.856E-01
  12.005  0.853E-01  0.853E-01
  12.015  0.846E-01  0.846E-01
  12.025  0.835E-01  0.835E-01
  12.035  0.819E-01  0.819E-01
  12.045  0.799E-01  0.799E-01
  12.055  0.775E-01  0.775E-01
  12.065  0.747E-01  0.747E-01
  12.075  0.717E-01  0.717E-01
  12.085  0.685E-01  0.685E-01
  12.095  0.651E-01  0.651E-01
  12.105  0.617E-01  0.617E-01
  12.115  0.583E-01  0.583E-01
  12.125  0.551E-01  0.551E-01
  12.135  0.521E-01  0.521E-01
  12.145  0.493E-01  0.493E-01
  12.155  0.468E-01  0.468E-01
  12.165  0.447E-01  0.447E-01
  12.175  0.429E-01  0.429E-01
  12.185  0.415E-01  0.415E-01
  12.195  0.405E-01  0.405E-01
  12.205  0.399E-01  0.399E-01
  12.215  0.397E-01  0.397E-01
  12.225  0.398E-01  0.398E-01
  12.235  0.403E-01  0.403E-01
  12.245  0.411E-01  0.411E-01
  12.255  0.422E-01  0.422E-01
  12.265  0.434E-01  0.434E-01
  12.275  0.449E-01  0.449E-01
  12.285  0.464E-01  0.464E-01
  12.295  0.479E-01  0.479E-01
  12.305  0.494E-01  0.494E-01
  12.315  0.509E-01  0.509E-01
  12.325  0.522E-01  0.522E-01
  12.335  0.533E-01  0.533E-01
  12.345  0.542E-01  0.542E-01
  12.355  0.549E-01  0.549E-01
  12.365  0.553E-01  0.553E-01
  12.375  0.555E-01  0.555E-01
  12.385  0.554E-01  0.554E-01
  12.395  0.552E-01  0.552E-01
  12.405  0.548E-01  0.548E-01
  12.415  0.544E-01  0.544E-01
  12.425  0.539E-01  0.539E-01
  12.435  0.535E-01  0.535E-01
  12.445  0.532E-01  0.532E-01
  12.455  0.529E-01  0.529E-01
  12.465  0.528E-01  0.528E-01
  12.475  0.529E-01  0.529E-01
  12.485  0.532E-01  0.532E-01
  12.495  0.537E-01  0.537E-01
  12.505  0.543E-01  0.543E-01
  12.515  0.549E-01  0.549E-01
  12.525  0.557E-01  0.557E-01
  12.535  0.564E-01  0.564E-01
  12.545  0.571E-01  0.571E-01
  12.555  0.577E-01  0.577E-01
  12.565  0.582E-01  0.582E-01
  12.575  0.585E-01  0.585E-01
  12.585  0.586E-01  0.586E-01
  12.595  0.584E-01  0.584E-01
  12.605  0.581E-01  0.581E-01
  12.615  0.576E-01  0.576E-01
  12.625  0.569E-01  0.569E-01
  12.635  0.562E-01  0.562E-01
  12.645  0.553E-01  0.553E-01
  12.655  0.544E-01  0.544E-01
  12.665  0.535E-01  0.535E-01
  12.675  0.527E-01  0.527E-01
  12.685  0.519E-01  0.519E-01
  12.695  0.512E-01  0.512E-01
  12.705  0.506E-01  0.506E-01
  12.715  0.501E-01  0.501E-01
  12.725  0.497E-01  0.497E-01
  12.735  0.494E-01  0.494E-01
  12.745  0.491E-01  0.491E-01
  12.755  0.489E-01  0.489E-01
  12.765  0.487E-01  0.487E-01
  12.775  0.485E-01  0.485E-01
  12.785  0.483E-01  0.483E-01
  12.795  0.480E-01  0.480E-01
  12.805  0.477E-01  0.477E-01
  12.815  0.474E-01  0.474E-01
  12.825  0.471E-01  0.471E-01
  12.835  0.468E-01  0.468E-01
  12.845  0.464E-01  0.464E-01
  12.855  0.460E-01  0.460E-01
  12.865  0.456E-01  0.456E-01
  12.875  0.452E-01  0.452E-01
  12.885  0.448E-01  0.448E-01
  12.895  0.444E-01  0.444E-01
  12.905  0.440E-01  0.440E-01
  12.915  0.436E-01  0.436E-01
  12.925  0.432E-01  0.432E-01
  12.935  0.428E-01  0.428E-01
  12.945  0.424E-01  0.424E-01
  12.955  0.420E-01  0.420E-01
  12.965  0.417E-01  0.417E-01
  12.975  0.414E-01  0.414E-01
  12.985  0.413E-01  0.413E-01
  12.995  0.412E-01  0.412E-01
  13.005  0.413E-01  0.413E-01
  13.015  0.416E-01  0.416E-01
  13.025  0.420E-01  0.420E-01
  13.035  0.427E-01  0.427E-01
  13.045  0.437E-01  0.437E-01
  13.055  0.449E-01  0.449E-01
  13.065  0.463E-01  0.463E-01
  13.075  0.480E-01  0.480E-01
  13.085  0.499E-01  0.499E-01
  13.095  0.520E-01  0.520E-01
  13.105  0.542E-01  0.542E-01
  13.115  0.565E-01  0.565E-01
  13.125  0.589E-01  0.589E-01
  13.135  0.612E-01  0.612E-01
  13.145  0.635E-01  0.635E-01
  13.155  0.656E-01  0.656E-01
  13.165  0.676E-01  0.676E-01
  13.175  0.693E-01  0.693E-01
  13.185  0.708E-01  0.708E-01
  13.195  0.720E-01  0.720E-01
  13.205  0.729E-01  0.729E-01
  13.215  0.734E-01  0.734E-01
  13.225  0.737E-01  0.737E-01
  13.235  0.736E-01  0.736E-01
  13.245  0.733E-01  0.733E-01
  13.255  0.727E-01  0.727E-01
  13.265  0.720E-01  0.720E-01
  13.275  0.710E-01  0.710E-01
  13.285  0.699E-01  0.699E-01
  13.295  0.688E-01  0.688E-01
  13.305  0.676E-01  0.676E-01
  13.315  0.664E-01  0.664E-01
  13.325  0.653E-01  0.653E-01
  13.335  0.642E-01  0.642E-01
  13.345  0.633E-01  0.633E-01
  13.355  0.624E-01  0.624E-01
  13.365  0.616E-01  0.616E-01
  13.375  0.608E-01  0.608E-01
  13.385  0.602E-01  0.602E-01
  13.395  0.596E-01  0.596E-01
  13.405  0.589E-01  0.589E-01
  13.415  0.583E-01  0.583E-01
  13.425  0.575E-01  0.575E-01
  13.435  0.567E-01  0.567E-01
  13.445  0.558E-01  0.558E-01
  13.455  0.547E-01  0.547E-01
  13.465  0.535E-01  0.535E-01
  13.475  0.522E-01  0.522E-01
  13.485  0.507E-01  0.507E-01
  13.495  0.491E-01  0.491E-01
  13.505  0.475E-01  0.475E-01
  13.515  0.459E-01  0.459E-01
  13.525  0.443E-01  0.443E-01
  13.535  0.427E-01  0.427E-01
  13.545  0.414E-01  0.414E-01
  13.555  0.402E-01  0.402E-01
  13.565  0.394E-01  0.394E-01
  13.575  0.388E-01  0.388E-01
  13.585  0.387E-01  0.387E-01
  13.595  0.389E-01  0.389E-01
  13.605  0.395E-01  0.395E-01
  13.615  0.406E-01  0.406E-01
  13.625  0.422E-01  0.422E-01
  13.635  0.441E-01  0.441E-01
  13.645  0.464E-01  0.464E-01
  13.655  0.490E-01  0.490E-01
  13.665  0.518E-01  0.518E-01
  13.675  0.548E-01  0.548E-01
  13.685  0.579E-01  0.579E-01
  13.695  0.610E-01  0.610E-01
  13.705  0.639E-01  0.639E-01
  13.715  0.667E-01  0.667E-01
  13.725  0.691E-01  0.691E-01
  13.735  0.712E-01  0.712E-01
  13.745  0.728E-01  0.728E-01
  13.755  0.739E-01  0.739E-01
  13.765  0.745E-01  0.745E-01
  13.775  0.745E-01  0.745E-01
  13.785  0.740E-01  0.740E-01
  13.795  0.729E-01  0.729E-01
  13.805  0.713E-01  0.713E-01
  13.815  0.693E-01  0.693E-01
  13.825  0.668E-01  0.668E-01
  13.835  0.641E-01  0.641E-01
  13.845  0.611E-01  0.611E-01
  13.855  0.579E-01  0.579E-01
  13.865  0.546E-01  0.546E-01
  13.875  0.513E-01  0.513E-01
  13.885  0.480E-01  0.480E-01
  13.895  0.448E-01  0.448E-01
  13.905  0.418E-01  0.418E-01
  13.915  0.389E-01  0.389E-01
  13.925  0.362E-01  0.362E-01
  13.935  0.337E-01  0.337E-01
  13.945  0.315E-01  0.315E-01
  13.955  0.295E-01  0.295E-01
  13.965  0.277E-01  0.277E-01
  13.975  0.262E-01  0.262E-01
  13.985  0.250E-01  0.250E-01
  13.995  0.240E-01  0.240E-01
  14.005  0.232E-01  0.232E-01
  14.015  0.227E-01  0.227E-01
  14.025  0.224E-01  0.224E-01
  14.035  0.223E-01  0.223E-01
  14.045  0.224E-01  0.224E-01
  14.055  0.227E-01  0.227E-01
  14.065  0.232E-01  0.232E-01
  14.075  0.238E-01  0.238E-01
  14.085  0.246E-01  0.246E-01
  14.095  0.255E-01  0.255E-01
  14.105  0.265E-01  0.265E-01
  14.115  0.275E-01  0.275E-01
  14.125  0.286E-01  0.286E-01
  14.135  0.296E-01  0.296E-01
  14.145  0.306E-01  0.306E-01
  14.155  0.315E-01  0.315E-01
  14.165  0.324E-01  0.324E-01
  14.175  0.332E-01  0.332E-01
  14.185  0.338E-01  0.338E-01
  14.195  0.344E-01  0.344E-01
  14.205  0.349E-01  0.349E-01
  14.215  0.352E-01  0.352E-01
  14.225  0.354E-01  0.354E-01
  14.235  0.356E-01  0.356E-01
  14.245  0.356E-01  0.356E-01
  14.255  0.355E-01  0.355E-01
  14.265  0.354E-01  0.354E-01
  14.275  0.351E-01  0.351E-01
  14.285  0.347E-01  0.347E-01
  14.295  0.343E-01  0.343E-01
  14.305  0.337E-01  0.337E-01
  14.315  0.330E-01  0.330E-01
  14.325  0.322E-01  0.322E-01
  14.335  0.312E-01  0.312E-01
  14.345  0.302E-01  0.302E-01
  14.355  0.290E-01  0.290E-01
  14.365  0.278E-01  0.278E-01
  14.375  0.265E-01  0.265E-01
  14.385  0.251E-01  0.251E-01
  14.395  0.237E-01  0.237E-01
  14.405  0.223E-01  0.223E-01
  14.415  0.209E-01  0.209E-01
  14.425  0.197E-01  0.197E-01
  14.435  0.185E-01  0.185E-01
  14.445  0.176E-01  0.176E-01
  14.455  0.168E-01  0.168E-01
  14.465  0.162E-01  0.162E-01
  14.475  0.158E-01  0.158E-01
  14.485  0.158E-01  0.158E-01
  14.495  0.160E-01  0.160E-01
  14.505  0.166E-01  0.166E-01
  14.515  0.174E-01  0.174E-01
  14.525  0.185E-01  0.185E-01
  14.535  0.199E-01  0.199E-01
  14.545  0.216E-01  0.216E-01
  14.555  0.235E-01  0.235E-01
  14.565  0.257E-01  0.257E-01
  14.575  0.280E-01  0.280E-01
  14.585  0.305E-01  0.305E-01
  14.595  0.330E-01  0.330E-01
  14.605  0.356E-01  0.356E-01
  14.615  0.381E-01  0.381E-01
  14.625  0.406E-01  0.406E-01
  14.635  0.429E-01  0.429E-01
  14.645  0.450E-01  0.450E-01
  14.655  0.468E-01  0.468E-01
  14.665  0.483E-01  0.483E-01
  14.675  0.495E-01  0.495E-01
  14.685  0.503E-01  0.503E-01
  14.695  0.507E-01  0.507E-01
  14.705  0.507E-01  0.507E-01
  14.715  0.503E-01  0.503E-01
  14.725  0.495E-01  0.495E-01
  14.735  0.484E-01  0.484E-01
  14.745  0.468E-01  0.468E-01
  14.755  0.450E-01  0.450E-01
  14.765  0.429E-01  0.429E-01
  14.775  0.406E-01  0.406E-01
  14.785  0.382E-01  0.382E-01
  14.795  0.356E-01  0.356E-01
  14.805  0.330E-01  0.330E-01
  14.815  0.304E-01  0.304E-01
  14.825  0.279E-01  0.279E-01
  14.835  0.254E-01  0.254E-01
  14.845  0.231E-01  0.231E-01
  14.855  0.210E-01  0.210E-01
  14.865  0.190E-01  0.190E-01
  14.875  0.173E-01  0.173E-01
  14.885  0.158E-01  0.158E-01
  14.895  0.145E-01  0.145E-01
  14.905  0.135E-01  0.135E-01
  14.915  0.127E-01  0.127E-01
  14.925  0.121E-01  0.121E-01
  14.935  0.118E-01  0.118E-01
  14.945  0.117E-01  0.117E-01
  14.955  0.119E-01  0.119E-01
  14.965  0.122E-01  0.122E-01
  14.975  0.127E-01  0.127E-01
  14.985  0.133E-01  0.133E-01
  14.995  0.141E-01  0.141E-01
  15.005  0.150E-01  0.150E-01
  15.015  0.160E-01  0.160E-01
  15.025  0.170E-01  0.170E-01
  15.035  0.180E-01  0.180E-01
  15.045  0.191E-01  0.191E-01
  15.055  0.201E-01  0.201E-01
  15.065  0.210E-01  0.210E-01
  15.075  0.218E-01  0.218E-01
  15.085  0.225E-01  0.225E-01
  15.095  0.231E-01  0.231E-01
  15.105  0.235E-01  0.235E-01
  15.115  0.237E-01  0.237E-01
  15.125  0.237E-01  0.237E-01
  15.135  0.236E-01  0.236E-01
  15.145  0.232E-01  0.232E-01
  15.155  0.227E-01  0.227E-01
  15.165  0.221E-01  0.221E-01
  15.175  0.213E-01  0.213E-01
  15.185  0.205E-01  0.205E-01
  15.195  0.196E-01  0.196E-01
  15.205  0.187E-01  0.187E-01
  15.215  0.178E-01  0.178E-01
  15.225  0.169E-01  0.169E-01
  15.235  0.161E-01  0.161E-01
  15.245  0.153E-01  0.153E-01
  15.255  0.147E-01  0.147E-01
  15.265  0.141E-01  0.141E-01
  15.275  0.137E-01  0.137E-01
  15.285  0.133E-01  0.133E-01
  15.295  0.131E-01  0.131E-01
  15.305  0.129E-01  0.129E-01
  15.315  0.128E-01  0.128E-01
  15.325  0.127E-01  0.127E-01
  15.335  0.127E-01  0.127E-01
  15.345  0.128E-01  0.128E-01
  15.355  0.128E-01  0.128E-01
  15.365  0.128E-01  0.128E-01
  15.375  0.129E-01  0.129E-01
  15.385  0.129E-01  0.129E-01
  15.395  0.129E-01  0.129E-01
  15.405  0.130E-01  0.130E-01
  15.415  0.130E-01  0.130E-01
  15.425  0.131E-01  0.131E-01
  15.435  0.132E-01  0.132E-01
  15.445  0.133E-01  0.133E-01
  15.455  0.135E-01  0.135E-01
  15.465  0.138E-01  0.138E-01
  15.475  0.142E-01  0.142E-01
  15.485  0.147E-01  0.147E-01
  15.495  0.153E-01  0.153E-01
  15.505  0.160E-01  0.160E-01
  15.515  0.169E-01  0.169E-01
  15.525  0.179E-01  0.179E-01
  15.535  0.190E-01  0.190E-01
  15.545  0.201E-01  0.201E-01
  15.555  0.214E-01  0.214E-01
  15.565  0.227E-01  0.227E-01
  15.575  0.240E-01  0.240E-01
  15.585  0.254E-01  0.254E-01
  15.595  0.266E-01  0.266E-01
  15.605  0.279E-01  0.279E-01
  15.615  0.290E-01  0.290E-01
  15.625  0.300E-01  0.300E-01
  15.635  0.310E-01  0.310E-01
  15.645  0.317E-01  0.317E-01
  15.655  0.323E-01  0.323E-01
  15.665  0.328E-01  0.328E-01
  15.675  0.331E-01  0.331E-01
  15.685  0.333E-01  0.333E-01
  15.695  0.333E-01  0.333E-01
  15.705  0.333E-01  0.333E-01
  15.715  0.331E-01  0.331E-01
  15.725  0.329E-01  0.329E-01
  15.735  0.326E-01  0.326E-01
  15.745  0.323E-01  0.323E-01
  15.755  0.320E-01  0.320E-01
  15.765  0.316E-01  0.316E-01
  15.775  0.312E-01  0.312E-01
  15.785  0.308E-01  0.308E-01
  15.795  0.305E-01  0.305E-01
  15.805  0.301E-01  0.301E-01
  15.815  0.298E-01  0.298E-01
  15.825  0.294E-01  0.294E-01
  15.835  0.291E-01  0.291E-01
  15.845  0.288E-01  0.288E-01
  15.855  0.284E-01  0.284E-01
  15.865  0.281E-01  0.281E-01
  15.875  0.277E-01  0.277E-01
  15.885  0.274E-01  0.274E-01
  15.895  0.269E-01  0.269E-01
  15.905  0.265E-01  0.265E-01
  15.915  0.260E-01  0.260E-01
  15.925  0.254E-01  0.254E-01
  15.935  0.247E-01  0.247E-01
  15.945  0.239E-01  0.239E-01
  15.955  0.231E-01  0.231E-01
  15.965  0.222E-01  0.222E-01
  15.975  0.211E-01  0.211E-01
  15.985  0.200E-01  0.200E-01
  15.995  0.189E-01  0.189E-01
  16.005  0.177E-01  0.177E-01
  16.015  0.164E-01  0.164E-01
  16.025  0.151E-01  0.151E-01
  16.035  0.138E-01  0.138E-01
  16.045  0.126E-01  0.126E-01
  16.055  0.113E-01  0.113E-01
  16.065  0.101E-01  0.101E-01
  16.075  0.900E-02  0.900E-02
  16.085  0.795E-02  0.795E-02
  16.095  0.700E-02  0.700E-02
  16.105  0.615E-02  0.615E-02
  16.115  0.541E-02  0.541E-02
  16.125  0.478E-02  0.478E-02
  16.135  0.428E-02  0.428E-02
  16.145  0.389E-02  0.389E-02
  16.155  0.363E-02  0.363E-02
  16.165  0.348E-02  0.348E-02
  16.175  0.345E-02  0.345E-02
  16.185  0.353E-02  0.353E-02
  16.195  0.372E-02  0.372E-02
  16.205  0.401E-02  0.401E-02
  16.215  0.439E-02  0.439E-02
  16.225  0.485E-02  0.485E-02
  16.235  0.538E-02  0.538E-02
  16.245  0.598E-02  0.598E-02
  16.255  0.662E-02  0.662E-02
  16.265  0.730E-02  0.730E-02
  16.275  0.800E-02  0.800E-02
  16.285  0.871E-02  0.871E-02
  16.295  0.940E-02  0.940E-02
  16.305  0.101E-01  0.101E-01
  16.315  0.107E-01  0.107E-01
  16.325  0.113E-01  0.113E-01
  16.335  0.118E-01  0.118E-01
  16.345  0.123E-01  0.123E-01
  16.355  0.127E-01  0.127E-01
  16.365  0.131E-01  0.131E-01
  16.375  0.134E-01  0.134E-01
  16.385  0.136E-01  0.136E-01
  16.395  0.139E-01  0.139E-01
  16.405  0.141E-01  0.141E-01
  16.415  0.143E-01  0.143E-01
  16.425  0.146E-01  0.146E-01
  16.435  0.149E-01  0.149E-01
  16.445  0.152E-01  0.152E-01
  16.455  0.157E-01  0.157E-01
  16.465  0.162E-01  0.162E-01
  16.475  0.167E-01  0.167E-01
  16.485  0.174E-01  0.174E-01
  16.495  0.181E-01  0.181E-01
  16.505  0.189E-01  0.189E-01
  16.515  0.197E-01  0.197E-01
  16.525  0.205E-01  0.205E-01
  16.535  0.213E-01  0.213E-01
  16.545  0.221E-01  0.221E-01
  16.555  0.227E-01  0.227E-01
  16.565  0.233E-01  0.233E-01
  16.575  0.238E-01  0.238E-01
  16.585  0.241E-01  0.241E-01
  16.595  0.243E-01  0.243E-01
  16.605  0.242E-01  0.242E-01
  16.615  0.241E-01  0.241E-01
  16.625  0.237E-01  0.237E-01
  16.635  0.232E-01  0.232E-01
  16.645  0.226E-01  0.226E-01
  16.655  0.219E-01  0.219E-01
  16.665  0.211E-01  0.211E-01
  16.675  0.203E-01  0.203E-01
  16.685  0.195E-01  0.195E-01
  16.695  0.187E-01  0.187E-01
  16.705  0.180E-01  0.180E-01
  16.715  0.174E-01  0.174E-01
  16.725  0.169E-01  0.169E-01
  16.735  0.165E-01  0.165E-01
  16.745  0.162E-01  0.162E-01
  16.755  0.161E-01  0.161E-01
  16.765  0.161E-01  0.161E-01
  16.775  0.163E-01  0.163E-01
  16.785  0.165E-01  0.165E-01
  16.795  0.169E-01  0.169E-01
  16.805  0.173E-01  0.173E-01
  16.815  0.178E-01  0.178E-01
  16.825  0.184E-01  0.184E-01
  16.835  0.189E-01  0.189E-01
  16.845  0.194E-01  0.194E-01
  16.855  0.199E-01  0.199E-01
  16.865  0.203E-01  0.203E-01
  16.875  0.206E-01  0.206E-01
  16.885  0.209E-01  0.209E-01
  16.895  0.211E-01  0.211E-01
  16.905  0.212E-01  0.212E-01
  16.915  0.212E-01  0.212E-01
  16.925  0.211E-01  0.211E-01
  16.935  0.210E-01  0.210E-01
  16.945  0.208E-01  0.208E-01
  16.955  0.205E-01  0.205E-01
  16.965  0.201E-01  0.201E-01
  16.975  0.197E-01  0.197E-01
  16.985  0.193E-01  0.193E-01
  16.995  0.188E-01  0.188E-01
  17.005  0.183E-01  0.183E-01
  17.015  0.177E-01  0.177E-01
  17.025  0.172E-01  0.172E-01
  17.035  0.165E-01  0.165E-01
  17.045  0.159E-01  0.159E-01
  17.055  0.152E-01  0.152E-01
  17.065  0.146E-01  0.146E-01
  17.075  0.139E-01  0.139E-01
  17.085  0.132E-01  0.132E-01
  17.095  0.125E-01  0.125E-01
  17.105  0.119E-01  0.119E-01
  17.115  0.113E-01  0.113E-01
  17.125  0.108E-01  0.108E-01
  17.135  0.103E-01  0.103E-01
  17.145  0.983E-02  0.983E-02
  17.155  0.948E-02  0.948E-02
  17.165  0.921E-02  0.921E-02
  17.175  0.903E-02  0.903E-02
  17.185  0.893E-02  0.893E-02
  17.195  0.893E-02  0.893E-02
  17.205  0.900E-02  0.900E-02
  17.215  0.916E-02  0.916E-02
  17.225  0.939E-02  0.939E-02
  17.235  0.968E-02  0.968E-02
  17.245  0.100E-01  0.100E-01
  17.255  0.104E-01  0.104E-01
  17.265  0.109E-01  0.109E-01
  17.275  0.114E-01  0.114E-01
  17.285  0.119E-01  0.119E-01
  17.295  0.124E-01  0.124E-01
  17.305  0.130E-01  0.130E-01
  17.315  0.136E-01  0.136E-01
  17.325  0.141E-01  0.141E-01
  17.335  0.147E-01  0.147E-01
  17.345  0.153E-01  0.153E-01
  17.355  0.159E-01  0.159E-01
  17.365  0.165E-01  0.165E-01
  17.375  0.171E-01  0.171E-01
  17.385  0.177E-01  0.177E-01
  17.395  0.182E-01  0.182E-01
  17.405  0.188E-01  0.188E-01
  17.415  0.193E-01  0.193E-01
  17.425  0.197E-01  0.197E-01
  17.435  0.201E-01  0.201E-01
  17.445  0.204E-01  0.204E-01
  17.455  0.207E-01  0.207E-01
  17.465  0.208E-01  0.208E-01
  17.475  0.209E-01  0.209E-01
  17.485  0.208E-01  0.208E-01
  17.495  0.206E-01  0.206E-01
  17.505  0.202E-01  0.202E-01
  17.515  0.197E-01  0.197E-01
  17.525  0.191E-01  0.191E-01
  17.535  0.184E-01  0.184E-01
  17.545  0.175E-01  0.175E-01
  17.555  0.166E-01  0.166E-01
  17.565  0.156E-01  0.156E-01
  17.575  0.145E-01  0.145E-01
  17.585  0.133E-01  0.133E-01
  17.595  0.122E-01  0.122E-01
  17.605  0.110E-01  0.110E-01
  17.615  0.990E-02  0.990E-02
  17.625  0.881E-02  0.881E-02
  17.635  0.777E-02  0.777E-02
  17.645  0.679E-02  0.679E-02
  17.655  0.589E-02  0.589E-02
  17.665  0.507E-02  0.507E-02
  17.675  0.434E-02  0.434E-02
  17.685  0.369E-02  0.369E-02
  17.695  0.313E-02  0.313E-02
  17.705  0.266E-02  0.266E-02
  17.715  0.226E-02  0.226E-02
  17.725  0.193E-02  0.193E-02
  17.735  0.166E-02  0.166E-02
  17.745  0.145E-02  0.145E-02
  17.755  0.129E-02  0.129E-02
  17.765  0.117E-02  0.117E-02
  17.775  0.108E-02  0.108E-02
  17.785  0.101E-02  0.101E-02
  17.795  0.972E-03  0.972E-03
  17.805  0.943E-03  0.943E-03
  17.815  0.926E-03  0.926E-03
  17.825  0.915E-03  0.915E-03
  17.835  0.908E-03  0.908E-03
  17.845  0.904E-03  0.904E-03
  17.855  0.899E-03  0.899E-03
  17.865  0.895E-03  0.895E-03
  17.875  0.890E-03  0.890E-03
  17.885  0.885E-03  0.885E-03
  17.895  0.882E-03  0.882E-03
  17.905  0.881E-03  0.881E-03
  17.915  0.884E-03  0.884E-03
  17.925  0.894E-03  0.894E-03
  17.935  0.914E-03  0.914E-03
  17.945  0.947E-03  0.947E-03
  17.955  0.995E-03  0.995E-03
  17.965  0.106E-02  0.106E-02
  17.975  0.115E-02  0.115E-02
  17.985  0.127E-02  0.127E-02
  17.995  0.142E-02  0.142E-02
  18.005  0.159E-02  0.159E-02
  18.015  0.181E-02  0.181E-02
  18.025  0.206E-02  0.206E-02
  18.035  0.234E-02  0.234E-02
  18.045  0.267E-02  0.267E-02
  18.055  0.303E-02  0.303E-02
  18.065  0.342E-02  0.342E-02
  18.075  0.385E-02  0.385E-02
  18.085  0.431E-02  0.431E-02
  18.095  0.479E-02  0.479E-02
  18.105  0.529E-02  0.529E-02
  18.115  0.580E-02  0.580E-02
  18.125  0.633E-02  0.633E-02
  18.135  0.686E-02  0.686E-02
  18.145  0.740E-02  0.740E-02
  18.155  0.794E-02  0.794E-02
  18.165  0.849E-02  0.849E-02
  18.175  0.905E-02  0.905E-02
  18.185  0.961E-02  0.961E-02
  18.195  0.102E-01  0.102E-01
  18.205  0.108E-01  0.108E-01
  18.215  0.114E-01  0.114E-01
  18.225  0.121E-01  0.121E-01
  18.235  0.128E-01  0.128E-01
  18.245  0.135E-01  0.135E-01
  18.255  0.143E-01  0.143E-01
  18.265  0.151E-01  0.151E-01
  18.275  0.159E-01  0.159E-01
  18.285  0.168E-01  0.168E-01
  18.295  0.176E-01  0.176E-01
  18.305  0.185E-01  0.185E-01
  18.315  0.193E-01  0.193E-01
  18.325  0.200E-01  0.200E-01
  18.335  0.207E-01  0.207E-01
  18.345  0.213E-01  0.213E-01
  18.355  0.218E-01  0.218E-01
  18.365  0.222E-01  0.222E-01
  18.375  0.224E-01  0.224E-01
  18.385  0.226E-01  0.226E-01
  18.395  0.225E-01  0.225E-01
  18.405  0.224E-01  0.224E-01
  18.415  0.221E-01  0.221E-01
  18.425  0.217E-01  0.217E-01
  18.435  0.212E-01  0.212E-01
  18.445  0.205E-01  0.205E-01
  18.455  0.199E-01  0.199E-01
  18.465  0.191E-01  0.191E-01
  18.475  0.184E-01  0.184E-01
  18.485  0.176E-01  0.176E-01
  18.495  0.168E-01  0.168E-01
  18.505  0.160E-01  0.160E-01
  18.515  0.153E-01  0.153E-01
  18.525  0.145E-01  0.145E-01
  18.535  0.138E-01  0.138E-01
  18.545  0.132E-01  0.132E-01
  18.555  0.125E-01  0.125E-01
  18.565  0.119E-01  0.119E-01
  18.575  0.113E-01  0.113E-01
  18.585  0.108E-01  0.108E-01
  18.595  0.103E-01  0.103E-01
  18.605  0.975E-02  0.975E-02
  18.615  0.927E-02  0.927E-02
  18.625  0.881E-02  0.881E-02
  18.635  0.837E-02  0.837E-02
  18.645  0.794E-02  0.794E-02
  18.655  0.755E-02  0.755E-02
  18.665  0.717E-02  0.717E-02
  18.675  0.683E-02  0.683E-02
  18.685  0.651E-02  0.651E-02
  18.695  0.623E-02  0.623E-02
  18.705  0.598E-02  0.598E-02
  18.715  0.577E-02  0.577E-02
  18.725  0.560E-02  0.560E-02
  18.735  0.547E-02  0.547E-02
  18.745  0.538E-02  0.538E-02
  18.755  0.533E-02  0.533E-02
  18.765  0.533E-02  0.533E-02
  18.775  0.538E-02  0.538E-02
  18.785  0.547E-02  0.547E-02
  18.795  0.563E-02  0.563E-02
  18.805  0.584E-02  0.584E-02
  18.815  0.613E-02  0.613E-02
  18.825  0.649E-02  0.649E-02
  18.835  0.695E-02  0.695E-02
  18.845  0.750E-02  0.750E-02
  18.855  0.817E-02  0.817E-02
  18.865  0.896E-02  0.896E-02
  18.875  0.987E-02  0.987E-02
  18.885  0.109E-01  0.109E-01
  18.895  0.121E-01  0.121E-01
  18.905  0.135E-01  0.135E-01
  18.915  0.149E-01  0.149E-01
  18.925  0.165E-01  0.165E-01
  18.935  0.182E-01  0.182E-01
  18.945  0.200E-01  0.200E-01
  18.955  0.219E-01  0.219E-01
  18.965  0.238E-01  0.238E-01
  18.975  0.256E-01  0.256E-01
  18.985  0.275E-01  0.275E-01
  18.995  0.292E-01  0.292E-01
  19.005  0.308E-01  0.308E-01
  19.015  0.323E-01  0.323E-01
  19.025  0.335E-01  0.335E-01
  19.035  0.345E-01  0.345E-01
  19.045  0.352E-01  0.352E-01
  19.055  0.356E-01  0.356E-01
  19.065  0.358E-01  0.358E-01
  19.075  0.356E-01  0.356E-01
  19.085  0.351E-01  0.351E-01
  19.095  0.343E-01  0.343E-01
  19.105  0.333E-01  0.333E-01
  19.115  0.320E-01  0.320E-01
  19.125  0.305E-01  0.305E-01
  19.135  0.289E-01  0.289E-01
  19.145  0.272E-01  0.272E-01
  19.155  0.254E-01  0.254E-01
  19.165  0.237E-01  0.237E-01
  19.175  0.219E-01  0.219E-01
  19.185  0.203E-01  0.203E-01
  19.195  0.187E-01  0.187E-01
  19.205  0.173E-01  0.173E-01
  19.215  0.161E-01  0.161E-01
  19.225  0.150E-01  0.150E-01
  19.235  0.141E-01  0.141E-01
  19.245  0.135E-01  0.135E-01
  19.255  0.130E-01  0.130E-01
  19.265  0.127E-01  0.127E-01
  19.275  0.126E-01  0.126E-01
  19.285  0.127E-01  0.127E-01
  19.295  0.129E-01  0.129E-01
  19.305  0.132E-01  0.132E-01
  19.315  0.137E-01  0.137E-01
  19.325  0.143E-01  0.143E-01
  19.335  0.149E-01  0.149E-01
  19.345  0.156E-01  0.156E-01
  19.355  0.164E-01  0.164E-01
  19.365  0.172E-01  0.172E-01
  19.375  0.180E-01  0.180E-01
  19.385  0.188E-01  0.188E-01
  19.395  0.197E-01  0.197E-01
  19.405  0.205E-01  0.205E-01
  19.415  0.213E-01  0.213E-01
  19.425  0.221E-01  0.221E-01
  19.435  0.228E-01  0.228E-01
  19.445  0.235E-01  0.235E-01
  19.455  0.241E-01  0.241E-01
  19.465  0.246E-01  0.246E-01
  19.475  0.251E-01  0.251E-01
  19.485  0.254E-01  0.254E-01
  19.495  0.257E-01  0.257E-01
  19.505  0.259E-01  0.259E-01
  19.515  0.259E-01  0.259E-01
  19.525  0.259E-01  0.259E-01
  19.535  0.257E-01  0.257E-01
  19.545  0.255E-01  0.255E-01
  19.555  0.252E-01  0.252E-01
  19.565  0.248E-01  0.248E-01
  19.575  0.243E-01  0.243E-01
  19.585  0.238E-01  0.238E-01
  19.595  0.232E-01  0.232E-01
  19.605  0.227E-01  0.227E-01
  19.615  0.221E-01  0.221E-01
  19.625  0.215E-01  0.215E-01
  19.635  0.210E-01  0.210E-01
  19.645  0.205E-01  0.205E-01
  19.655  0.200E-01  0.200E-01
  19.665  0.196E-01  0.196E-01
  19.675  0.192E-01  0.192E-01
  19.685  0.189E-01  0.189E-01
  19.695  0.186E-01  0.186E-01
  19.705  0.184E-01  0.184E-01
  19.715  0.181E-01  0.181E-01
  19.725  0.179E-01  0.179E-01
  19.735  0.177E-01  0.177E-01
  19.745  0.175E-01  0.175E-01
  19.755  0.173E-01  0.173E-01
  19.765  0.171E-01  0.171E-01
  19.775  0.168E-01  0.168E-01
  19.785  0.165E-01  0.165E-01
  19.795  0.162E-01  0.162E-01
  19.805  0.158E-01  0.158E-01
  19.815  0.154E-01  0.154E-01
  19.825  0.150E-01  0.150E-01
  19.835  0.146E-01  0.146E-01
  19.845  0.142E-01  0.142E-01
  19.855  0.138E-01  0.138E-01
  19.865  0.134E-01  0.134E-01
  19.875  0.131E-01  0.131E-01
  19.885  0.129E-01  0.129E-01
  19.895  0.127E-01  0.127E-01
  19.905  0.126E-01  0.126E-01
  19.915  0.126E-01  0.126E-01
  19.925  0.127E-01  0.127E-01
  19.935  0.129E-01  0.129E-01
  19.945  0.132E-01  0.132E-01
  19.955  0.135E-01  0.135E-01
  19.965  0.139E-01  0.139E-01
  19.975  0.143E-01  0.143E-01
  19.985  0.148E-01  0.148E-01
  19.995  0.152E-01  0.152E-01
  20.005  0.155E-01  0.155E-01
  20.015  0.159E-01  0.159E-01
  20.025  0.161E-01  0.161E-01
  20.035  0.163E-01  0.163E-01
  20.045  0.163E-01  0.163E-01
  20.055  0.162E-01  0.162E-01
  20.065  0.160E-01  0.160E-01
  20.075  0.157E-01  0.157E-01
  20.085  0.152E-01  0.152E-01
  20.095  0.146E-01  0.146E-01
  20.105  0.140E-01  0.140E-01
  20.115  0.133E-01  0.133E-01
  20.125  0.125E-01  0.125E-01
  20.135  0.116E-01  0.116E-01
  20.145  0.108E-01  0.108E-01
  20.155  0.997E-02  0.997E-02
  20.165  0.915E-02  0.915E-02
  20.175  0.838E-02  0.838E-02
  20.185  0.766E-02  0.766E-02
  20.195  0.700E-02  0.700E-02
  20.205  0.641E-02  0.641E-02
  20.215  0.589E-02  0.589E-02
  20.225  0.545E-02  0.545E-02
  20.235  0.508E-02  0.508E-02
  20.245  0.477E-02  0.477E-02
  20.255  0.452E-02  0.452E-02
  20.265  0.432E-02  0.432E-02
  20.275  0.416E-02  0.416E-02
  20.285  0.403E-02  0.403E-02
  20.295  0.391E-02  0.391E-02
  20.305  0.382E-02  0.382E-02
  20.315  0.372E-02  0.372E-02
  20.325  0.363E-02  0.363E-02
  20.335  0.353E-02  0.353E-02
  20.345  0.342E-02  0.342E-02
  20.355  0.330E-02  0.330E-02
  20.365  0.317E-02  0.317E-02
  20.375  0.304E-02  0.304E-02
  20.385  0.290E-02  0.290E-02
  20.395  0.276E-02  0.276E-02
  20.405  0.262E-02  0.262E-02
  20.415  0.248E-02  0.248E-02
  20.425  0.236E-02  0.236E-02
  20.435  0.226E-02  0.226E-02
  20.445  0.217E-02  0.217E-02
  20.455  0.211E-02  0.211E-02
  20.465  0.207E-02  0.207E-02
  20.475  0.206E-02  0.206E-02
  20.485  0.207E-02  0.207E-02
  20.495  0.211E-02  0.211E-02
  20.505  0.217E-02  0.217E-02
  20.515  0.225E-02  0.225E-02
  20.525  0.235E-02  0.235E-02
  20.535  0.246E-02  0.246E-02
  20.545  0.258E-02  0.258E-02
  20.555  0.270E-02  0.270E-02
  20.565  0.282E-02  0.282E-02
  20.575  0.293E-02  0.293E-02
  20.585  0.303E-02  0.303E-02
  20.595  0.311E-02  0.311E-02
  20.605  0.317E-02  0.317E-02
  20.615  0.321E-02  0.321E-02
  20.625  0.322E-02  0.322E-02
  20.635  0.322E-02  0.322E-02
  20.645  0.319E-02  0.319E-02
  20.655  0.314E-02  0.314E-02
  20.665  0.308E-02  0.308E-02
  20.675  0.301E-02  0.301E-02
  20.685  0.293E-02  0.293E-02
  20.695  0.285E-02  0.285E-02
  20.705  0.278E-02  0.278E-02
  20.715  0.273E-02  0.273E-02
  20.725  0.269E-02  0.269E-02
  20.735  0.268E-02  0.268E-02
  20.745  0.269E-02  0.269E-02
  20.755  0.274E-02  0.274E-02
  20.765  0.283E-02  0.283E-02
  20.775  0.295E-02  0.295E-02
  20.785  0.311E-02  0.311E-02
  20.795  0.331E-02  0.331E-02
  20.805  0.354E-02  0.354E-02
  20.815  0.381E-02  0.381E-02
  20.825  0.409E-02  0.409E-02
  20.835  0.440E-02  0.440E-02
  20.845  0.472E-02  0.472E-02
  20.855  0.505E-02  0.505E-02
  20.865  0.537E-02  0.537E-02
  20.875  0.568E-02  0.568E-02
  20.885  0.598E-02  0.598E-02
  20.895  0.626E-02  0.626E-02
  20.905  0.652E-02  0.652E-02
  20.915  0.674E-02  0.674E-02
  20.925  0.694E-02  0.694E-02
  20.935  0.710E-02  0.710E-02
  20.945  0.724E-02  0.724E-02
  20.955  0.735E-02  0.735E-02
  20.965  0.744E-02  0.744E-02
  20.975  0.752E-02  0.752E-02
  20.985  0.758E-02  0.758E-02
  20.995  0.763E-02  0.763E-02
  21.005  0.767E-02  0.767E-02
  21.015  0.771E-02  0.771E-02
  21.025  0.776E-02  0.776E-02
  21.035  0.780E-02  0.780E-02
  21.045  0.784E-02  0.784E-02
  21.055  0.788E-02  0.788E-02
  21.065  0.792E-02  0.792E-02
  21.075  0.794E-02  0.794E-02
  21.085  0.796E-02  0.796E-02
  21.095  0.795E-02  0.795E-02
  21.105  0.793E-02  0.793E-02
  21.115  0.788E-02  0.788E-02
  21.125  0.781E-02  0.781E-02
  21.135  0.771E-02  0.771E-02
  21.145  0.758E-02  0.758E-02
  21.155  0.743E-02  0.743E-02
  21.165  0.727E-02  0.727E-02
  21.175  0.708E-02  0.708E-02
  21.185  0.689E-02  0.689E-02
  21.195  0.670E-02  0.670E-02
  21.205  0.651E-02  0.651E-02
  21.215  0.634E-02  0.634E-02
  21.225  0.618E-02  0.618E-02
  21.235  0.605E-02  0.605E-02
  21.245  0.595E-02  0.595E-02
  21.255  0.588E-02  0.588E-02
  21.265  0.584E-02  0.584E-02
  21.275  0.583E-02  0.583E-02
  21.285  0.584E-02  0.584E-02
  21.295  0.587E-02  0.587E-02
  21.305  0.592E-02  0.592E-02
  21.315  0.598E-02  0.598E-02
  21.325  0.604E-02  0.604E-02
  21.335  0.608E-02  0.608E-02
  21.345  0.611E-02  0.611E-02
  21.355  0.612E-02  0.612E-02
  21.365  0.610E-02  0.610E-02
  21.375  0.605E-02  0.605E-02
  21.385  0.596E-02  0.596E-02
  21.395  0.583E-02  0.583E-02
  21.405  0.567E-02  0.567E-02
  21.415  0.547E-02  0.547E-02
  21.425  0.524E-02  0.524E-02
  21.435  0.498E-02  0.498E-02
  21.445  0.471E-02  0.471E-02
  21.455  0.442E-02  0.442E-02
  21.465  0.413E-02  0.413E-02
  21.475  0.383E-02  0.383E-02
  21.485  0.355E-02  0.355E-02
  21.495  0.328E-02  0.328E-02
  21.505  0.303E-02  0.303E-02
  21.515  0.280E-02  0.280E-02
  21.525  0.261E-02  0.261E-02
  21.535  0.244E-02  0.244E-02
  21.545  0.230E-02  0.230E-02
  21.555  0.220E-02  0.220E-02
  21.565  0.213E-02  0.213E-02
  21.575  0.209E-02  0.209E-02
  21.585  0.208E-02  0.208E-02
  21.595  0.210E-02  0.210E-02
  21.605  0.214E-02  0.214E-02
  21.615  0.220E-02  0.220E-02
  21.625  0.227E-02  0.227E-02
  21.635  0.236E-02  0.236E-02
  21.645  0.246E-02  0.246E-02
  21.655  0.257E-02  0.257E-02
  21.665  0.268E-02  0.268E-02
  21.675  0.279E-02  0.279E-02
  21.685  0.289E-02  0.289E-02
  21.695  0.300E-02  0.300E-02
  21.705  0.310E-02  0.310E-02
  21.715  0.319E-02  0.319E-02
  21.725  0.328E-02  0.328E-02
  21.735  0.335E-02  0.335E-02
  21.745  0.342E-02  0.342E-02
  21.755  0.347E-02  0.347E-02
  21.765  0.352E-02  0.352E-02
  21.775  0.355E-02  0.355E-02
  21.785  0.358E-02  0.358E-02
  21.795  0.360E-02  0.360E-02
  21.805  0.361E-02  0.361E-02
  21.815  0.362E-02  0.362E-02
  21.825  0.362E-02  0.362E-02
  21.835  0.362E-02  0.362E-02
  21.845  0.361E-02  0.361E-02
  21.855  0.361E-02  0.361E-02
  21.865  0.360E-02  0.360E-02
  21.875  0.359E-02  0.359E-02
  21.885  0.358E-02  0.358E-02
  21.895  0.358E-02  0.358E-02
  21.905  0.357E-02  0.357E-02
  21.915  0.356E-02  0.356E-02
  21.925  0.354E-02  0.354E-02
  21.935  0.353E-02  0.353E-02
  21.945  0.350E-02  0.350E-02
  21.955  0.348E-02  0.348E-02
  21.965  0.345E-02  0.345E-02
  21.975  0.341E-02  0.341E-02
  21.985  0.337E-02  0.337E-02
  21.995  0.333E-02  0.333E-02
  22.005  0.328E-02  0.328E-02
  22.015  0.323E-02  0.323E-02
  22.025  0.319E-02  0.319E-02
  22.035  0.314E-02  0.314E-02
  22.045  0.310E-02  0.310E-02
  22.055  0.306E-02  0.306E-02
  22.065  0.303E-02  0.303E-02
  22.075  0.301E-02  0.301E-02
  22.085  0.300E-02  0.300E-02
  22.095  0.300E-02  0.300E-02
  22.105  0.301E-02  0.301E-02
  22.115  0.302E-02  0.302E-02
  22.125  0.305E-02  0.305E-02
  22.135  0.309E-02  0.309E-02
  22.145  0.313E-02  0.313E-02
  22.155  0.318E-02  0.318E-02
  22.165  0.323E-02  0.323E-02
  22.175  0.328E-02  0.328E-02
  22.185  0.333E-02  0.333E-02
  22.195  0.338E-02  0.338E-02
  22.205  0.342E-02  0.342E-02
  22.215  0.345E-02  0.345E-02
  22.225  0.348E-02  0.348E-02
  22.235  0.350E-02  0.350E-02
  22.245  0.351E-02  0.351E-02
  22.255  0.351E-02  0.351E-02
  22.265  0.351E-02  0.351E-02
  22.275  0.349E-02  0.349E-02
  22.285  0.346E-02  0.346E-02
  22.295  0.342E-02  0.342E-02
  22.305  0.338E-02  0.338E-02
  22.315  0.332E-02  0.332E-02
  22.325  0.326E-02  0.326E-02
  22.335  0.319E-02  0.319E-02
  22.345  0.311E-02  0.311E-02
  22.355  0.302E-02  0.302E-02
  22.365  0.293E-02  0.293E-02
  22.375  0.283E-02  0.283E-02
  22.385  0.273E-02  0.273E-02
  22.395  0.262E-02  0.262E-02
  22.405  0.251E-02  0.251E-02
  22.415  0.240E-02  0.240E-02
  22.425  0.229E-02  0.229E-02
  22.435  0.218E-02  0.218E-02
  22.445  0.208E-02  0.208E-02
  22.455  0.198E-02  0.198E-02
  22.465  0.190E-02  0.190E-02
  22.475  0.182E-02  0.182E-02
  22.485  0.177E-02  0.177E-02
  22.495  0.173E-02  0.173E-02
  22.505  0.171E-02  0.171E-02
  22.515  0.172E-02  0.172E-02
  22.525  0.176E-02  0.176E-02
  22.535  0.182E-02  0.182E-02
  22.545  0.190E-02  0.190E-02
  22.555  0.202E-02  0.202E-02
  22.565  0.216E-02  0.216E-02
  22.575  0.233E-02  0.233E-02
  22.585  0.252E-02  0.252E-02
  22.595  0.273E-02  0.273E-02
  22.605  0.296E-02  0.296E-02
  22.615  0.320E-02  0.320E-02
  22.625  0.345E-02  0.345E-02
  22.635  0.371E-02  0.371E-02
  22.645  0.397E-02  0.397E-02
  22.655  0.423E-02  0.423E-02
  22.665  0.449E-02  0.449E-02
  22.675  0.474E-02  0.474E-02
  22.685  0.499E-02  0.499E-02
  22.695  0.522E-02  0.522E-02
  22.705  0.545E-02  0.545E-02
  22.715  0.567E-02  0.567E-02
  22.725  0.587E-02  0.587E-02
  22.735  0.607E-02  0.607E-02
  22.745  0.625E-02  0.625E-02
  22.755  0.642E-02  0.642E-02
  22.765  0.658E-02  0.658E-02
  22.775  0.673E-02  0.673E-02
  22.785  0.686E-02  0.686E-02
  22.795  0.697E-02  0.697E-02
  22.805  0.707E-02  0.707E-02
  22.815  0.714E-02  0.714E-02
  22.825  0.719E-02  0.719E-02
  22.835  0.721E-02  0.721E-02
  22.845  0.720E-02  0.720E-02
  22.855  0.717E-02  0.717E-02
  22.865  0.712E-02  0.712E-02
  22.875  0.704E-02  0.704E-02
  22.885  0.693E-02  0.693E-02
  22.895  0.682E-02  0.682E-02
  22.905  0.669E-02  0.669E-02
  22.915  0.655E-02  0.655E-02
  22.925  0.642E-02  0.642E-02
  22.935  0.629E-02  0.629E-02
  22.945  0.617E-02  0.617E-02
  22.955  0.607E-02  0.607E-02
  22.965  0.600E-02  0.600E-02
  22.975  0.595E-02  0.595E-02
  22.985  0.593E-02  0.593E-02
  22.995  0.594E-02  0.594E-02
  23.005  0.598E-02  0.598E-02
  23.015  0.605E-02  0.605E-02
  23.025  0.614E-02  0.614E-02
  23.035  0.625E-02  0.625E-02
  23.045  0.637E-02  0.637E-02
  23.055  0.650E-02  0.650E-02
  23.065  0.663E-02  0.663E-02
  23.075  0.676E-02  0.676E-02
  23.085  0.688E-02  0.688E-02
  23.095  0.697E-02  0.697E-02
  23.105  0.705E-02  0.705E-02
  23.115  0.709E-02  0.709E-02
  23.125  0.710E-02  0.710E-02
  23.135  0.707E-02  0.707E-02
  23.145  0.700E-02  0.700E-02
  23.155  0.690E-02  0.690E-02
  23.165  0.676E-02  0.676E-02
  23.175  0.659E-02  0.659E-02
  23.185  0.638E-02  0.638E-02
  23.195  0.615E-02  0.615E-02
  23.205  0.590E-02  0.590E-02
  23.215  0.563E-02  0.563E-02
  23.225  0.535E-02  0.535E-02
  23.235  0.507E-02  0.507E-02
  23.245  0.480E-02  0.480E-02
  23.255  0.453E-02  0.453E-02
  23.265  0.427E-02  0.427E-02
  23.275  0.403E-02  0.403E-02
  23.285  0.380E-02  0.380E-02
  23.295  0.359E-02  0.359E-02
  23.305  0.340E-02  0.340E-02
  23.315  0.323E-02  0.323E-02
  23.325  0.307E-02  0.307E-02
  23.335  0.292E-02  0.292E-02
  23.345  0.279E-02  0.279E-02
  23.355  0.266E-02  0.266E-02
  23.365  0.254E-02  0.254E-02
  23.375  0.243E-02  0.243E-02
  23.385  0.232E-02  0.232E-02
  23.395  0.220E-02  0.220E-02
  23.405  0.210E-02  0.210E-02
  23.415  0.199E-02  0.199E-02
  23.425  0.189E-02  0.189E-02
  23.435  0.179E-02  0.179E-02
  23.445  0.170E-02  0.170E-02
  23.455  0.162E-02  0.162E-02
  23.465  0.155E-02  0.155E-02
  23.475  0.150E-02  0.150E-02
  23.485  0.146E-02  0.146E-02
  23.495  0.144E-02  0.144E-02
  23.505  0.144E-02  0.144E-02
  23.515  0.146E-02  0.146E-02
  23.525  0.149E-02  0.149E-02
  23.535  0.155E-02  0.155E-02
  23.545  0.162E-02  0.162E-02
  23.555  0.171E-02  0.171E-02
  23.565  0.182E-02  0.182E-02
  23.575  0.194E-02  0.194E-02
  23.585  0.206E-02  0.206E-02
  23.595  0.220E-02  0.220E-02
  23.605  0.233E-02  0.233E-02
  23.615  0.247E-02  0.247E-02
  23.625  0.262E-02  0.262E-02
  23.635  0.276E-02  0.276E-02
  23.645  0.290E-02  0.290E-02
  23.655  0.304E-02  0.304E-02
  23.665  0.319E-02  0.319E-02
  23.675  0.333E-02  0.333E-02
  23.685  0.348E-02  0.348E-02
  23.695  0.364E-02  0.364E-02
  23.705  0.380E-02  0.380E-02
  23.715  0.397E-02  0.397E-02
  23.725  0.414E-02  0.414E-02
  23.735  0.433E-02  0.433E-02
  23.745  0.452E-02  0.452E-02
  23.755  0.471E-02  0.471E-02
  23.765  0.490E-02  0.490E-02
  23.775  0.510E-02  0.510E-02
  23.785  0.528E-02  0.528E-02
  23.795  0.546E-02  0.546E-02
  23.805  0.562E-02  0.562E-02
  23.815  0.576E-02  0.576E-02
  23.825  0.588E-02  0.588E-02
  23.835  0.598E-02  0.598E-02
  23.845  0.606E-02  0.606E-02
  23.855  0.610E-02  0.610E-02
  23.865  0.613E-02  0.613E-02
  23.875  0.613E-02  0.613E-02
  23.885  0.611E-02  0.611E-02
  23.895  0.608E-02  0.608E-02
  23.905  0.604E-02  0.604E-02
  23.915  0.599E-02  0.599E-02
  23.925  0.595E-02  0.595E-02
  23.935  0.591E-02  0.591E-02
  23.945  0.588E-02  0.588E-02
  23.955  0.586E-02  0.586E-02
  23.965  0.586E-02  0.586E-02
  23.975  0.588E-02  0.588E-02
  23.985  0.591E-02  0.591E-02
  23.995  0.596E-02  0.596E-02
  24.005  0.603E-02  0.603E-02
  24.015  0.611E-02  0.611E-02
  24.025  0.621E-02  0.621E-02
  24.035  0.631E-02  0.631E-02
  24.045  0.642E-02  0.642E-02
  24.055  0.652E-02  0.652E-02
  24.065  0.662E-02  0.662E-02
  24.075  0.671E-02  0.671E-02
  24.085  0.679E-02  0.679E-02
  24.095  0.685E-02  0.685E-02
  24.105  0.689E-02  0.689E-02
  24.115  0.690E-02  0.690E-02
  24.125  0.689E-02  0.689E-02
  24.135  0.686E-02  0.686E-02
  24.145  0.680E-02  0.680E-02
  24.155  0.671E-02  0.671E-02
  24.165  0.660E-02  0.660E-02
  24.175  0.647E-02  0.647E-02
  24.185  0.633E-02  0.633E-02
  24.195  0.617E-02  0.617E-02
  24.205  0.601E-02  0.601E-02
  24.215  0.585E-02  0.585E-02
  24.225  0.569E-02  0.569E-02
  24.235  0.554E-02  0.554E-02
  24.245  0.541E-02  0.541E-02
  24.255  0.529E-02  0.529E-02
  24.265  0.519E-02  0.519E-02
  24.275  0.510E-02  0.510E-02
  24.285  0.504E-02  0.504E-02
  24.295  0.499E-02  0.499E-02
  24.305  0.495E-02  0.495E-02
  24.315  0.493E-02  0.493E-02
  24.325  0.491E-02  0.491E-02
  24.335  0.490E-02  0.490E-02
  24.345  0.488E-02  0.488E-02
  24.355  0.487E-02  0.487E-02
  24.365  0.485E-02  0.485E-02
  24.375  0.481E-02  0.481E-02
  24.385  0.477E-02  0.477E-02
  24.395  0.472E-02  0.472E-02
  24.405  0.465E-02  0.465E-02
  24.415  0.456E-02  0.456E-02
  24.425  0.447E-02  0.447E-02
  24.435  0.437E-02  0.437E-02
  24.445  0.425E-02  0.425E-02
  24.455  0.413E-02  0.413E-02
  24.465  0.401E-02  0.401E-02
  24.475  0.389E-02  0.389E-02
  24.485  0.377E-02  0.377E-02
  24.495  0.366E-02  0.366E-02
  24.505  0.356E-02  0.356E-02
  24.515  0.348E-02  0.348E-02
  24.525  0.343E-02  0.343E-02
  24.535  0.340E-02  0.340E-02
  24.545  0.340E-02  0.340E-02
  24.555  0.343E-02  0.343E-02
  24.565  0.350E-02  0.350E-02
  24.575  0.361E-02  0.361E-02
  24.585  0.376E-02  0.376E-02
  24.595  0.394E-02  0.394E-02
  24.605  0.416E-02  0.416E-02
  24.615  0.441E-02  0.441E-02
  24.625  0.468E-02  0.468E-02
  24.635  0.498E-02  0.498E-02
  24.645  0.530E-02  0.530E-02
  24.655  0.563E-02  0.563E-02
  24.665  0.596E-02  0.596E-02
  24.675  0.629E-02  0.629E-02
  24.685  0.662E-02  0.662E-02
  24.695  0.693E-02  0.693E-02
  24.705  0.723E-02  0.723E-02
  24.715  0.750E-02  0.750E-02
  24.725  0.775E-02  0.775E-02
  24.735  0.798E-02  0.798E-02
  24.745  0.819E-02  0.819E-02
  24.755  0.837E-02  0.837E-02
  24.765  0.852E-02  0.852E-02
  24.775  0.865E-02  0.865E-02
  24.785  0.876E-02  0.876E-02
  24.795  0.885E-02  0.885E-02
  24.805  0.891E-02  0.891E-02
  24.815  0.895E-02  0.895E-02
  24.825  0.897E-02  0.897E-02
  24.835  0.896E-02  0.896E-02
  24.845  0.892E-02  0.892E-02
  24.855  0.886E-02  0.886E-02
  24.865  0.876E-02  0.876E-02
  24.875  0.863E-02  0.863E-02
  24.885  0.846E-02  0.846E-02
  24.895  0.826E-02  0.826E-02
  24.905  0.803E-02  0.803E-02
  24.915  0.776E-02  0.776E-02
  24.925  0.747E-02  0.747E-02
  24.935  0.715E-02  0.715E-02
  24.945  0.681E-02  0.681E-02
  24.955  0.646E-02  0.646E-02
  24.965  0.611E-02  0.611E-02
  24.975  0.575E-02  0.575E-02
  24.985  0.540E-02  0.540E-02
  24.995  0.506E-02  0.506E-02
  25.005  0.474E-02  0.474E-02
  25.015  0.444E-02  0.444E-02
  25.025  0.416E-02  0.416E-02
  25.035  0.391E-02  0.391E-02
  25.045  0.370E-02  0.370E-02
  25.055  0.351E-02  0.351E-02
  25.065  0.336E-02  0.336E-02
  25.075  0.323E-02  0.323E-02
  25.085  0.313E-02  0.313E-02
  25.095  0.306E-02  0.306E-02
  25.105  0.302E-02  0.302E-02
  25.115  0.300E-02  0.300E-02
  25.125  0.300E-02  0.300E-02
  25.135  0.302E-02  0.302E-02
  25.145  0.306E-02  0.306E-02
  25.155  0.312E-02  0.312E-02
  25.165  0.319E-02  0.319E-02
  25.175  0.328E-02  0.328E-02
  25.185  0.338E-02  0.338E-02
  25.195  0.349E-02  0.349E-02
  25.205  0.361E-02  0.361E-02
  25.215  0.373E-02  0.373E-02
  25.225  0.386E-02  0.386E-02
  25.235  0.399E-02  0.399E-02
  25.245  0.411E-02  0.411E-02
  25.255  0.424E-02  0.424E-02
  25.265  0.435E-02  0.435E-02
  25.275  0.445E-02  0.445E-02
  25.285  0.454E-02  0.454E-02
  25.295  0.461E-02  0.461E-02
  25.305  0.465E-02  0.465E-02
  25.315  0.467E-02  0.467E-02
  25.325  0.467E-02  0.467E-02
  25.335  0.463E-02  0.463E-02
  25.345  0.457E-02  0.457E-02
  25.355  0.448E-02  0.448E-02
  25.365  0.435E-02  0.435E-02
  25.375  0.421E-02  0.421E-02
  25.385  0.403E-02  0.403E-02
  25.395  0.384E-02  0.384E-02
  25.405  0.363E-02  0.363E-02
  25.415  0.340E-02  0.340E-02
  25.425  0.317E-02  0.317E-02
  25.435  0.293E-02  0.293E-02
  25.445  0.269E-02  0.269E-02
  25.455  0.246E-02  0.246E-02
  25.465  0.224E-02  0.224E-02
  25.475  0.203E-02  0.203E-02
  25.485  0.184E-02  0.184E-02
  25.495  0.167E-02  0.167E-02
  25.505  0.152E-02  0.152E-02
  25.515  0.139E-02  0.139E-02
  25.525  0.129E-02  0.129E-02
  25.535  0.121E-02  0.121E-02
  25.545  0.115E-02  0.115E-02
  25.555  0.112E-02  0.112E-02
  25.565  0.112E-02  0.112E-02
  25.575  0.114E-02  0.114E-02
  25.585  0.118E-02  0.118E-02
  25.595  0.125E-02  0.125E-02
  25.605  0.133E-02  0.133E-02
  25.615  0.143E-02  0.143E-02
  25.625  0.156E-02  0.156E-02
  25.635  0.169E-02  0.169E-02
  25.645  0.184E-02  0.184E-02
  25.655  0.201E-02  0.201E-02
  25.665  0.218E-02  0.218E-02
  25.675  0.236E-02  0.236E-02
  25.685  0.255E-02  0.255E-02
  25.695  0.274E-02  0.274E-02
  25.705  0.293E-02  0.293E-02
  25.715  0.312E-02  0.312E-02
  25.725  0.330E-02  0.330E-02
  25.735  0.348E-02  0.348E-02
  25.745  0.365E-02  0.365E-02
  25.755  0.381E-02  0.381E-02
  25.765  0.395E-02  0.395E-02
  25.775  0.409E-02  0.409E-02
  25.785  0.421E-02  0.421E-02
  25.795  0.433E-02  0.433E-02
  25.805  0.443E-02  0.443E-02
  25.815  0.453E-02  0.453E-02
  25.825  0.462E-02  0.462E-02
  25.835  0.470E-02  0.470E-02
  25.845  0.478E-02  0.478E-02
  25.855  0.485E-02  0.485E-02
  25.865  0.493E-02  0.493E-02
  25.875  0.500E-02  0.500E-02
  25.885  0.507E-02  0.507E-02
  25.895  0.513E-02  0.513E-02
  25.905  0.519E-02  0.519E-02
  25.915  0.524E-02  0.524E-02
  25.925  0.528E-02  0.528E-02
  25.935  0.531E-02  0.531E-02
  25.945  0.532E-02  0.532E-02
  25.955  0.530E-02  0.530E-02
  25.965  0.527E-02  0.527E-02
  25.975  0.521E-02  0.521E-02
  25.985  0.512E-02  0.512E-02
  25.995  0.501E-02  0.501E-02
  26.005  0.487E-02  0.487E-02
  26.015  0.470E-02  0.470E-02
  26.025  0.451E-02  0.451E-02
  26.035  0.429E-02  0.429E-02
  26.045  0.406E-02  0.406E-02
  26.055  0.381E-02  0.381E-02
  26.065  0.356E-02  0.356E-02
  26.075  0.330E-02  0.330E-02
  26.085  0.304E-02  0.304E-02
  26.095  0.278E-02  0.278E-02
  26.105  0.253E-02  0.253E-02
  26.115  0.229E-02  0.229E-02
  26.125  0.207E-02  0.207E-02
  26.135  0.186E-02  0.186E-02
  26.145  0.167E-02  0.167E-02
  26.155  0.149E-02  0.149E-02
  26.165  0.134E-02  0.134E-02
  26.175  0.120E-02  0.120E-02
  26.185  0.109E-02  0.109E-02
  26.195  0.984E-03  0.984E-03
  26.205  0.899E-03  0.899E-03
  26.215  0.829E-03  0.829E-03
  26.225  0.772E-03  0.772E-03
  26.235  0.727E-03  0.727E-03
  26.245  0.694E-03  0.694E-03
  26.255  0.670E-03  0.670E-03
  26.265  0.656E-03  0.656E-03
  26.275  0.650E-03  0.650E-03
  26.285  0.653E-03  0.653E-03
  26.295  0.663E-03  0.663E-03
  26.305  0.681E-03  0.681E-03
  26.315  0.707E-03  0.707E-03
  26.325  0.741E-03  0.741E-03
  26.335  0.783E-03  0.783E-03
  26.345  0.835E-03  0.835E-03
  26.355  0.897E-03  0.897E-03
  26.365  0.970E-03  0.970E-03
  26.375  0.105E-02  0.105E-02
  26.385  0.115E-02  0.115E-02
  26.395  0.126E-02  0.126E-02
  26.405  0.137E-02  0.137E-02
  26.415  0.150E-02  0.150E-02
  26.425  0.164E-02  0.164E-02
  26.435  0.179E-02  0.179E-02
  26.445  0.195E-02  0.195E-02
  26.455  0.211E-02  0.211E-02
  26.465  0.228E-02  0.228E-02
  26.475  0.244E-02  0.244E-02
  26.485  0.261E-02  0.261E-02
  26.495  0.276E-02  0.276E-02
  26.505  0.290E-02  0.290E-02
  26.515  0.303E-02  0.303E-02
  26.525  0.314E-02  0.314E-02
  26.535  0.324E-02  0.324E-02
  26.545  0.331E-02  0.331E-02
  26.555  0.336E-02  0.336E-02
  26.565  0.339E-02  0.339E-02
  26.575  0.340E-02  0.340E-02
  26.585  0.339E-02  0.339E-02
  26.595  0.336E-02  0.336E-02
  26.605  0.332E-02  0.332E-02
  26.615  0.326E-02  0.326E-02
  26.625  0.320E-02  0.320E-02
  26.635  0.313E-02  0.313E-02
  26.645  0.306E-02  0.306E-02
  26.655  0.299E-02  0.299E-02
  26.665  0.292E-02  0.292E-02
  26.675  0.286E-02  0.286E-02
  26.685  0.280E-02  0.280E-02
  26.695  0.274E-02  0.274E-02
  26.705  0.269E-02  0.269E-02
  26.715  0.265E-02  0.265E-02
  26.725  0.260E-02  0.260E-02
  26.735  0.256E-02  0.256E-02
  26.745  0.251E-02  0.251E-02
  26.755  0.246E-02  0.246E-02
  26.765  0.241E-02  0.241E-02
  26.775  0.235E-02  0.235E-02
  26.785  0.228E-02  0.228E-02
  26.795  0.220E-02  0.220E-02
  26.805  0.212E-02  0.212E-02
  26.815  0.202E-02  0.202E-02
  26.825  0.192E-02  0.192E-02
  26.835  0.182E-02  0.182E-02
  26.845  0.171E-02  0.171E-02
  26.855  0.160E-02  0.160E-02
  26.865  0.149E-02  0.149E-02
  26.875  0.138E-02  0.138E-02
  26.885  0.129E-02  0.129E-02
  26.895  0.120E-02  0.120E-02
  26.905  0.112E-02  0.112E-02
  26.915  0.106E-02  0.106E-02
  26.925  0.102E-02  0.102E-02
  26.935  0.988E-03  0.988E-03
  26.945  0.978E-03  0.978E-03
  26.955  0.986E-03  0.986E-03
  26.965  0.101E-02  0.101E-02
  26.975  0.106E-02  0.106E-02
  26.985  0.112E-02  0.112E-02
  26.995  0.119E-02  0.119E-02
  27.005  0.129E-02  0.129E-02
  27.015  0.139E-02  0.139E-02
  27.025  0.150E-02  0.150E-02
  27.035  0.161E-02  0.161E-02
  27.045  0.173E-02  0.173E-02
  27.055  0.185E-02  0.185E-02
  27.065  0.196E-02  0.196E-02
  27.075  0.207E-02  0.207E-02
  27.085  0.217E-02  0.217E-02
  27.095  0.225E-02  0.225E-02
  27.105  0.232E-02  0.232E-02
  27.115  0.237E-02  0.237E-02
  27.125  0.240E-02  0.240E-02
  27.135  0.241E-02  0.241E-02
  27.145  0.240E-02  0.240E-02
  27.155  0.237E-02  0.237E-02
  27.165  0.233E-02  0.233E-02
  27.175  0.226E-02  0.226E-02
  27.185  0.218E-02  0.218E-02
  27.195  0.208E-02  0.208E-02
  27.205  0.198E-02  0.198E-02
  27.215  0.187E-02  0.187E-02
  27.225  0.176E-02  0.176E-02
  27.235  0.164E-02  0.164E-02
  27.245  0.153E-02  0.153E-02
  27.255  0.143E-02  0.143E-02
  27.265  0.133E-02  0.133E-02
  27.275  0.124E-02  0.124E-02
  27.285  0.117E-02  0.117E-02
  27.295  0.111E-02  0.111E-02
  27.305  0.107E-02  0.107E-02
  27.315  0.104E-02  0.104E-02
  27.325  0.102E-02  0.102E-02
  27.335  0.102E-02  0.102E-02
  27.345  0.104E-02  0.104E-02
  27.355  0.107E-02  0.107E-02
  27.365  0.111E-02  0.111E-02
  27.375  0.116E-02  0.116E-02
  27.385  0.122E-02  0.122E-02
  27.395  0.129E-02  0.129E-02
  27.405  0.137E-02  0.137E-02
  27.415  0.145E-02  0.145E-02
  27.425  0.154E-02  0.154E-02
  27.435  0.162E-02  0.162E-02
  27.445  0.171E-02  0.171E-02
  27.455  0.180E-02  0.180E-02
  27.465  0.189E-02  0.189E-02
  27.475  0.198E-02  0.198E-02
  27.485  0.207E-02  0.207E-02
  27.495  0.215E-02  0.215E-02
  27.505  0.224E-02  0.224E-02
  27.515  0.232E-02  0.232E-02
  27.525  0.239E-02  0.239E-02
  27.535  0.247E-02  0.247E-02
  27.545  0.253E-02  0.253E-02
  27.555  0.259E-02  0.259E-02
  27.565  0.264E-02  0.264E-02
  27.575  0.268E-02  0.268E-02
  27.585  0.271E-02  0.271E-02
  27.595  0.272E-02  0.272E-02
  27.605  0.272E-02  0.272E-02
  27.615  0.270E-02  0.270E-02
  27.625  0.267E-02  0.267E-02
  27.635  0.261E-02  0.261E-02
  27.645  0.254E-02  0.254E-02
  27.655  0.246E-02  0.246E-02
  27.665  0.235E-02  0.235E-02
  27.675  0.224E-02  0.224E-02
  27.685  0.211E-02  0.211E-02
  27.695  0.197E-02  0.197E-02
  27.705  0.183E-02  0.183E-02
  27.715  0.168E-02  0.168E-02
  27.725  0.153E-02  0.153E-02
  27.735  0.138E-02  0.138E-02
  27.745  0.124E-02  0.124E-02
  27.755  0.110E-02  0.110E-02
  27.765  0.968E-03  0.968E-03
  27.775  0.848E-03  0.848E-03
  27.785  0.737E-03  0.737E-03
  27.795  0.639E-03  0.639E-03
  27.805  0.552E-03  0.552E-03
  27.815  0.477E-03  0.477E-03
  27.825  0.414E-03  0.414E-03
  27.835  0.363E-03  0.363E-03
  27.845  0.324E-03  0.324E-03
  27.855  0.296E-03  0.296E-03
  27.865  0.278E-03  0.278E-03
  27.875  0.270E-03  0.270E-03
  27.885  0.272E-03  0.272E-03
  27.895  0.282E-03  0.282E-03
  27.905  0.300E-03  0.300E-03
  27.915  0.325E-03  0.325E-03
  27.925  0.355E-03  0.355E-03
  27.935  0.391E-03  0.391E-03
  27.945  0.430E-03  0.430E-03
  27.955  0.472E-03  0.472E-03
  27.965  0.515E-03  0.515E-03
  27.975  0.557E-03  0.557E-03
  27.985  0.599E-03  0.599E-03
  27.995  0.638E-03  0.638E-03
  28.005  0.672E-03  0.672E-03
  28.015  0.702E-03  0.702E-03
  28.025  0.725E-03  0.725E-03
  28.035  0.742E-03  0.742E-03
  28.045  0.751E-03  0.751E-03
  28.055  0.753E-03  0.753E-03
  28.065  0.747E-03  0.747E-03
  28.075  0.734E-03  0.734E-03
  28.085  0.715E-03  0.715E-03
  28.095  0.689E-03  0.689E-03
  28.105  0.658E-03  0.658E-03
  28.115  0.624E-03  0.624E-03
  28.125  0.587E-03  0.587E-03
  28.135  0.550E-03  0.550E-03
  28.145  0.512E-03  0.512E-03
  28.155  0.475E-03  0.475E-03
  28.165  0.441E-03  0.441E-03
  28.175  0.411E-03  0.411E-03
  28.185  0.385E-03  0.385E-03
  28.195  0.364E-03  0.364E-03
  28.205  0.348E-03  0.348E-03
  28.215  0.338E-03  0.338E-03
  28.225  0.335E-03  0.335E-03
  28.235  0.337E-03  0.337E-03
  28.245  0.346E-03  0.346E-03
  28.255  0.360E-03  0.360E-03
  28.265  0.380E-03  0.380E-03
  28.275  0.406E-03  0.406E-03
  28.285  0.436E-03  0.436E-03
  28.295  0.471E-03  0.471E-03
  28.305  0.509E-03  0.509E-03
  28.315  0.552E-03  0.552E-03
  28.325  0.597E-03  0.597E-03
  28.335  0.644E-03  0.644E-03
  28.345  0.693E-03  0.693E-03
  28.355  0.743E-03  0.743E-03
  28.365  0.792E-03  0.792E-03
  28.375  0.841E-03  0.841E-03
  28.385  0.887E-03  0.887E-03
  28.395  0.930E-03  0.930E-03
  28.405  0.969E-03  0.969E-03
  28.415  0.100E-02  0.100E-02
  28.425  0.103E-02  0.103E-02
  28.435  0.105E-02  0.105E-02
  28.445  0.107E-02  0.107E-02
  28.455  0.107E-02  0.107E-02
  28.465  0.107E-02  0.107E-02
  28.475  0.106E-02  0.106E-02
  28.485  0.104E-02  0.104E-02
  28.495  0.102E-02  0.102E-02
  28.505  0.984E-03  0.984E-03
  28.515  0.946E-03  0.946E-03
  28.525  0.903E-03  0.903E-03
  28.535  0.855E-03  0.855E-03
  28.545  0.805E-03  0.805E-03
  28.555  0.753E-03  0.753E-03
  28.565  0.699E-03  0.699E-03
  28.575  0.646E-03  0.646E-03
  28.585  0.594E-03  0.594E-03
  28.595  0.543E-03  0.543E-03
  28.605  0.495E-03  0.495E-03
  28.615  0.450E-03  0.450E-03
  28.625  0.408E-03  0.408E-03
  28.635  0.370E-03  0.370E-03
  28.645  0.337E-03  0.337E-03
  28.655  0.307E-03  0.307E-03
  28.665  0.282E-03  0.282E-03
  28.675  0.262E-03  0.262E-03
  28.685  0.245E-03  0.245E-03
  28.695  0.233E-03  0.233E-03
  28.705  0.226E-03  0.226E-03
  28.715  0.222E-03  0.222E-03
  28.725  0.221E-03  0.221E-03
  28.735  0.224E-03  0.224E-03
  28.745  0.230E-03  0.230E-03
  28.755  0.239E-03  0.239E-03
  28.765  0.249E-03  0.249E-03
  28.775  0.261E-03  0.261E-03
  28.785  0.274E-03  0.274E-03
  28.795  0.288E-03  0.288E-03
  28.805  0.303E-03  0.303E-03
  28.815  0.317E-03  0.317E-03
  28.825  0.332E-03  0.332E-03
  28.835  0.345E-03  0.345E-03
  28.845  0.358E-03  0.358E-03
  28.855  0.370E-03  0.370E-03
  28.865  0.381E-03  0.381E-03
  28.875  0.390E-03  0.390E-03
  28.885  0.399E-03  0.399E-03
  28.895  0.406E-03  0.406E-03
  28.905  0.412E-03  0.412E-03
  28.915  0.416E-03  0.416E-03
  28.925  0.419E-03  0.419E-03
  28.935  0.421E-03  0.421E-03
  28.945  0.421E-03  0.421E-03
  28.955  0.419E-03  0.419E-03
  28.965  0.416E-03  0.416E-03
  28.975  0.411E-03  0.411E-03
  28.985  0.405E-03  0.405E-03
  28.995  0.398E-03  0.398E-03
  29.005  0.389E-03  0.389E-03
  29.015  0.380E-03  0.380E-03
  29.025  0.369E-03  0.369E-03
  29.035  0.359E-03  0.359E-03
  29.045  0.348E-03  0.348E-03
  29.055  0.338E-03  0.338E-03
  29.065  0.328E-03  0.328E-03
  29.075  0.319E-03  0.319E-03
  29.085  0.312E-03  0.312E-03
  29.095  0.306E-03  0.306E-03
  29.105  0.301E-03  0.301E-03
  29.115  0.298E-03  0.298E-03
  29.125  0.296E-03  0.296E-03
  29.135  0.296E-03  0.296E-03
  29.145  0.296E-03  0.296E-03
  29.155  0.298E-03  0.298E-03
  29.165  0.300E-03  0.300E-03
  29.175  0.302E-03  0.302E-03
  29.185  0.304E-03  0.304E-03
  29.195  0.305E-03  0.305E-03
  29.205  0.306E-03  0.306E-03
  29.215  0.306E-03  0.306E-03
  29.225  0.305E-03  0.305E-03
  29.235  0.303E-03  0.303E-03
  29.245  0.301E-03  0.301E-03
  29.255  0.298E-03  0.298E-03
  29.265  0.296E-03  0.296E-03
  29.275  0.294E-03  0.294E-03
  29.285  0.294E-03  0.294E-03
  29.295  0.295E-03  0.295E-03
  29.305  0.299E-03  0.299E-03
  29.315  0.307E-03  0.307E-03
  29.325  0.319E-03  0.319E-03
  29.335  0.336E-03  0.336E-03
  29.345  0.358E-03  0.358E-03
  29.355  0.386E-03  0.386E-03
  29.365  0.421E-03  0.421E-03
  29.375  0.463E-03  0.463E-03
  29.385  0.511E-03  0.511E-03
  29.395  0.566E-03  0.566E-03
  29.405  0.626E-03  0.626E-03
  29.415  0.692E-03  0.692E-03
  29.425  0.762E-03  0.762E-03
  29.435  0.835E-03  0.835E-03
  29.445  0.909E-03  0.909E-03
  29.455  0.984E-03  0.984E-03
  29.465  0.106E-02  0.106E-02
  29.475  0.113E-02  0.113E-02
  29.485  0.119E-02  0.119E-02
  29.495  0.125E-02  0.125E-02
  29.505  0.130E-02  0.130E-02
  29.515  0.134E-02  0.134E-02
  29.525  0.136E-02  0.136E-02
  29.535  0.138E-02  0.138E-02
  29.545  0.139E-02  0.139E-02
  29.555  0.138E-02  0.138E-02
  29.565  0.136E-02  0.136E-02
  29.575  0.133E-02  0.133E-02
  29.585  0.129E-02  0.129E-02
  29.595  0.125E-02  0.125E-02
  29.605  0.119E-02  0.119E-02
  29.615  0.113E-02  0.113E-02
  29.625  0.106E-02  0.106E-02
  29.635  0.990E-03  0.990E-03
  29.645  0.918E-03  0.918E-03
  29.655  0.845E-03  0.845E-03
  29.665  0.773E-03  0.773E-03
  29.675  0.703E-03  0.703E-03
  29.685  0.636E-03  0.636E-03
  29.695  0.573E-03  0.573E-03
  29.705  0.513E-03  0.513E-03
  29.715  0.458E-03  0.458E-03
  29.725  0.408E-03  0.408E-03
  29.735  0.363E-03  0.363E-03
  29.745  0.322E-03  0.322E-03
  29.755  0.285E-03  0.285E-03
  29.765  0.253E-03  0.253E-03
  29.775  0.225E-03  0.225E-03
  29.785  0.201E-03  0.201E-03
  29.795  0.180E-03  0.180E-03
  29.805  0.162E-03  0.162E-03
  29.815  0.147E-03  0.147E-03
  29.825  0.134E-03  0.134E-03
  29.835  0.123E-03  0.123E-03
  29.845  0.113E-03  0.113E-03
  29.855  0.104E-03  0.104E-03
  29.865  0.967E-04  0.967E-04
  29.875  0.898E-04  0.898E-04
  29.885  0.833E-04  0.833E-04
  29.895  0.773E-04  0.773E-04
  29.905  0.715E-04  0.715E-04
  29.915  0.659E-04  0.659E-04
  29.925  0.605E-04  0.605E-04
  29.935  0.552E-04  0.552E-04
  29.945  0.501E-04  0.501E-04
  29.955  0.450E-04  0.450E-04
  29.965  0.402E-04  0.402E-04
  29.975  0.356E-04  0.356E-04
  29.985  0.313E-04  0.313E-04
  29.995  0.272E-04  0.272E-04
  30.005  0.235E-04  0.235E-04
  30.015  0.201E-04  0.201E-04
  30.025  0.170E-04  0.170E-04
  30.035  0.143E-04  0.143E-04
  30.045  0.118E-04  0.118E-04
  30.055  0.976E-05  0.976E-05
  30.065  0.797E-05  0.797E-05
  30.075  0.648E-05  0.648E-05
  30.085  0.525E-05  0.525E-05
  30.095  0.426E-05  0.426E-05
  30.105  0.349E-05  0.349E-05
  30.115  0.293E-05  0.293E-05
  30.125  0.256E-05  0.256E-05
  30.135  0.238E-05  0.238E-05
  30.145  0.239E-05  0.239E-05
  30.155  0.258E-05  0.258E-05
  30.165  0.296E-05  0.296E-05
  30.175  0.357E-05  0.357E-05
  30.185  0.440E-05  0.440E-05
  30.195  0.551E-05  0.551E-05
  30.205  0.690E-05  0.690E-05
  30.215  0.863E-05  0.863E-05
  30.225  0.107E-04  0.107E-04
  30.235  0.132E-04  0.132E-04
  30.245  0.161E-04  0.161E-04
  30.255  0.194E-04  0.194E-04
  30.265  0.232E-04  0.232E-04
  30.275  0.275E-04  0.275E-04
  30.285  0.322E-04  0.322E-04
  30.295  0.372E-04  0.372E-04
  30.305  0.426E-04  0.426E-04
  30.315  0.483E-04  0.483E-04
  30.325  0.542E-04  0.542E-04
  30.335  0.601E-04  0.601E-04
  30.345  0.659E-04  0.659E-04
  30.355  0.715E-04  0.715E-04
  30.365  0.767E-04  0.767E-04
  30.375  0.815E-04  0.815E-04
  30.385  0.856E-04  0.856E-04
  30.395  0.890E-04  0.890E-04
  30.405  0.915E-04  0.915E-04
  30.415  0.930E-04  0.930E-04
  30.425  0.936E-04  0.936E-04
  30.435  0.932E-04  0.932E-04
  30.445  0.917E-04  0.917E-04
  30.455  0.894E-04  0.894E-04
  30.465  0.861E-04  0.861E-04
  30.475  0.821E-04  0.821E-04
  30.485  0.774E-04  0.774E-04
  30.495  0.722E-04  0.722E-04
  30.505  0.666E-04  0.666E-04
  30.515  0.608E-04  0.608E-04
  30.525  0.549E-04  0.549E-04
  30.535  0.491E-04  0.491E-04
  30.545  0.434E-04  0.434E-04
  30.555  0.379E-04  0.379E-04
  30.565  0.328E-04  0.328E-04
  30.575  0.281E-04  0.281E-04
  30.585  0.238E-04  0.238E-04
  30.595  0.199E-04  0.199E-04
  30.605  0.165E-04  0.165E-04
  30.615  0.135E-04  0.135E-04
  30.625  0.110E-04  0.110E-04
  30.635  0.883E-05  0.883E-05
  30.645  0.704E-05  0.704E-05
  30.655  0.557E-05  0.557E-05
  30.665  0.438E-05  0.438E-05
  30.675  0.344E-05  0.344E-05
  30.685  0.272E-05  0.272E-05
  30.695  0.217E-05  0.217E-05
  30.705  0.177E-05  0.177E-05
  30.715  0.151E-05  0.151E-05
  30.725  0.135E-05  0.135E-05
  30.735  0.128E-05  0.128E-05
  30.745  0.129E-05  0.129E-05
  30.755  0.135E-05  0.135E-05
  30.765  0.148E-05  0.148E-05
  30.775  0.164E-05  0.164E-05
  30.785  0.185E-05  0.185E-05
  30.795  0.208E-05  0.208E-05
  30.805  0.234E-05  0.234E-05
  30.815  0.261E-05  0.261E-05
  30.825  0.289E-05  0.289E-05
  30.835  0.317E-05  0.317E-05
  30.845  0.345E-05  0.345E-05
  30.855  0.371E-05  0.371E-05
  30.865  0.395E-05  0.395E-05
  30.875  0.417E-05  0.417E-05
  30.885  0.435E-05  0.435E-05
  30.895  0.450E-05  0.450E-05
  30.905  0.461E-05  0.461E-05
  30.915  0.468E-05  0.468E-05
  30.925  0.471E-05  0.471E-05
  30.935  0.471E-05  0.471E-05
  30.945  0.468E-05  0.468E-05
  30.955  0.465E-05  0.465E-05
  30.965  0.462E-05  0.462E-05
  30.975  0.462E-05  0.462E-05
  30.985  0.467E-05  0.467E-05
  30.995  0.481E-05  0.481E-05
  31.005  0.506E-05  0.506E-05
  31.015  0.548E-05  0.548E-05
  31.025  0.610E-05  0.610E-05
  31.035  0.699E-05  0.699E-05
  31.045  0.819E-05  0.819E-05
  31.055  0.979E-05  0.979E-05
  31.065  0.118E-04  0.118E-04
  31.075  0.144E-04  0.144E-04
  31.085  0.175E-04  0.175E-04
  31.095  0.213E-04  0.213E-04
  31.105  0.258E-04  0.258E-04
  31.115  0.311E-04  0.311E-04
  31.125  0.371E-04  0.371E-04
  31.135  0.439E-04  0.439E-04
  31.145  0.514E-04  0.514E-04
  31.155  0.597E-04  0.597E-04
  31.165  0.686E-04  0.686E-04
  31.175  0.779E-04  0.779E-04
  31.185  0.877E-04  0.877E-04
  31.195  0.976E-04  0.976E-04
  31.205  0.107E-03  0.107E-03
  31.215  0.117E-03  0.117E-03
  31.225  0.126E-03  0.126E-03
  31.235  0.134E-03  0.134E-03
  31.245  0.142E-03  0.142E-03
  31.255  0.148E-03  0.148E-03
  31.265  0.153E-03  0.153E-03
  31.275  0.156E-03  0.156E-03
  31.285  0.158E-03  0.158E-03
  31.295  0.158E-03  0.158E-03
  31.305  0.156E-03  0.156E-03
  31.315  0.152E-03  0.152E-03
  31.325  0.147E-03  0.147E-03
  31.335  0.141E-03  0.141E-03
  31.345  0.134E-03  0.134E-03
  31.355  0.125E-03  0.125E-03
  31.365  0.116E-03  0.116E-03
  31.375  0.106E-03  0.106E-03
  31.385  0.963E-04  0.963E-04
  31.395  0.864E-04  0.864E-04
  31.405  0.767E-04  0.767E-04
  31.415  0.673E-04  0.673E-04
  31.425  0.585E-04  0.585E-04
  31.435  0.502E-04  0.502E-04
  31.445  0.427E-04  0.427E-04
  31.455  0.359E-04  0.359E-04
  31.465  0.298E-04  0.298E-04
  31.475  0.246E-04  0.246E-04
  31.485  0.200E-04  0.200E-04
  31.495  0.161E-04  0.161E-04
  31.505  0.128E-04  0.128E-04
  31.515  0.101E-04  0.101E-04
  31.525  0.787E-05  0.787E-05
  31.535  0.607E-05  0.607E-05
  31.545  0.463E-05  0.463E-05
  31.555  0.349E-05  0.349E-05
  31.565  0.261E-05  0.261E-05
  31.575  0.193E-05  0.193E-05
  31.585  0.141E-05  0.141E-05
  31.595  0.102E-05  0.102E-05
  31.605  0.727E-06  0.727E-06
  31.615  0.514E-06  0.514E-06
  31.625  0.360E-06  0.360E-06
  31.635  0.249E-06  0.249E-06
  31.645  0.171E-06  0.171E-06
  31.655  0.116E-06  0.116E-06
  31.665  0.774E-07  0.774E-07
  31.675  0.513E-07  0.513E-07
  31.685  0.336E-07  0.336E-07
  31.695  0.218E-07  0.218E-07
  31.705  0.140E-07  0.140E-07
