# E (eV)   ldos(E)   pdos(E)   
  -6.332  0.308E-04  0.308E-04
  -6.322  0.481E-04  0.481E-04
  -6.312  0.742E-04  0.742E-04
  -6.302  0.113E-03  0.113E-03
  -6.292  0.171E-03  0.171E-03
  -6.282  0.256E-03  0.256E-03
  -6.272  0.379E-03  0.379E-03
  -6.262  0.554E-03  0.554E-03
  -6.252  0.803E-03  0.803E-03
  -6.242  0.115E-02  0.115E-02
  -6.232  0.163E-02  0.163E-02
  -6.222  0.229E-02  0.229E-02
  -6.212  0.319E-02  0.319E-02
  -6.202  0.439E-02  0.439E-02
  -6.192  0.597E-02  0.597E-02
  -6.182  0.804E-02  0.804E-02
  -6.172  0.107E-01  0.107E-01
  -6.162  0.141E-01  0.141E-01
  -6.152  0.185E-01  0.185E-01
  -6.142  0.239E-01  0.239E-01
  -6.132  0.305E-01  0.305E-01
  -6.122  0.387E-01  0.387E-01
  -6.112  0.485E-01  0.485E-01
  -6.102  0.602E-01  0.602E-01
  -6.092  0.739E-01  0.739E-01
  -6.082  0.899E-01  0.899E-01
  -6.072  0.108E+00  0.108E+00
  -6.062  0.129E+00  0.129E+00
  -6.052  0.152E+00  0.152E+00
  -6.042  0.178E+00  0.178E+00
  -6.032  0.206E+00  0.206E+00
  -6.022  0.236E+00  0.236E+00
  -6.012  0.268E+00  0.268E+00
  -6.002  0.301E+00  0.301E+00
  -5.992  0.336E+00  0.336E+00
  -5.982  0.370E+00  0.370E+00
  -5.972  0.405E+00  0.405E+00
  -5.962  0.439E+00  0.439E+00
  -5.952  0.472E+00  0.472E+00
  -5.942  0.503E+00  0.503E+00
  -5.932  0.531E+00  0.531E+00
  -5.922  0.557E+00  0.557E+00
  -5.912  0.579E+00  0.579E+00
  -5.902  0.597E+00  0.597E+00
  -5.892  0.612E+00  0.612E+00
  -5.882  0.622E+00  0.622E+00
  -5.872  0.628E+00  0.628E+00
  -5.862  0.631E+00  0.631E+00
  -5.852  0.629E+00  0.629E+00
  -5.842  0.624E+00  0.624E+00
  -5.832  0.615E+00  0.615E+00
  -5.822  0.604E+00  0.604E+00
  -5.812  0.591E+00  0.591E+00
  -5.802  0.575E+00  0.575E+00
  -5.792  0.558E+00  0.558E+00
  -5.782  0.540E+00  0.540E+00
  -5.772  0.521E+00  0.521E+00
  -5.762  0.502E+00  0.502E+00
  -5.752  0.483E+00  0.483E+00
  -5.742  0.465E+00  0.465E+00
  -5.732  0.447E+00  0.447E+00
  -5.722  0.430E+00  0.430E+00
  -5.712  0.415E+00  0.415E+00
  -5.702  0.400E+00  0.400E+00
  -5.692  0.387E+00  0.387E+00
  -5.682  0.375E+00  0.375E+00
  -5.672  0.364E+00  0.364E+00
  -5.662  0.354E+00  0.354E+00
  -5.652  0.345E+00  0.345E+00
  -5.642  0.337E+00  0.337E+00
  -5.632  0.329E+00  0.329E+00
  -5.622  0.322E+00  0.322E+00
  -5.612  0.315E+00  0.315E+00
  -5.602  0.309E+00  0.309E+00
  -5.592  0.302E+00  0.302E+00
  -5.582  0.296E+00  0.296E+00
  -5.572  0.289E+00  0.289E+00
  -5.562  0.283E+00  0.283E+00
  -5.552  0.276E+00  0.276E+00
  -5.542  0.269E+00  0.269E+00
  -5.532  0.262E+00  0.262E+00
  -5.522  0.255E+00  0.255E+00
  -5.512  0.249E+00  0.249E+00
  -5.502  0.242E+00  0.242E+00
  -5.492  0.236E+00  0.236E+00
  -5.482  0.231E+00  0.231E+00
  -5.472  0.226E+00  0.226E+00
  -5.462  0.222E+00  0.222E+00
  -5.452  0.218E+00  0.218E+00
  -5.442  0.215E+00  0.215E+00
  -5.432  0.213E+00  0.213E+00
  -5.422  0.211E+00  0.211E+00
  -5.412  0.210E+00  0.210E+00
  -5.402  0.210E+00  0.210E+00
  -5.392  0.210E+00  0.210E+00
  -5.382  0.210E+00  0.210E+00
  -5.372  0.211E+00  0.211E+00
  -5.362  0.212E+00  0.212E+00
  -5.352  0.213E+00  0.213E+00
  -5.342  0.213E+00  0.213E+00
  -5.332  0.214E+00  0.214E+00
  -5.322  0.214E+00  0.214E+00
  -5.312  0.213E+00  0.213E+00
  -5.302  0.212E+00  0.212E+00
  -5.292  0.210E+00  0.210E+00
  -5.282  0.208E+00  0.208E+00
  -5.272  0.205E+00  0.205E+00
  -5.262  0.201E+00  0.201E+00
  -5.252  0.196E+00  0.196E+00
  -5.242  0.191E+00  0.191E+00
  -5.232  0.185E+00  0.185E+00
  -5.222  0.179E+00  0.179E+00
  -5.212  0.173E+00  0.173E+00
  -5.202  0.167E+00  0.167E+00
  -5.192  0.161E+00  0.161E+00
  -5.182  0.155E+00  0.155E+00
  -5.172  0.149E+00  0.149E+00
  -5.162  0.144E+00  0.144E+00
  -5.152  0.140E+00  0.140E+00
  -5.142  0.137E+00  0.137E+00
  -5.132  0.135E+00  0.135E+00
  -5.122  0.134E+00  0.134E+00
  -5.112  0.133E+00  0.133E+00
  -5.102  0.134E+00  0.134E+00
  -5.092  0.136E+00  0.136E+00
  -5.082  0.139E+00  0.139E+00
  -5.072  0.143E+00  0.143E+00
  -5.062  0.147E+00  0.147E+00
  -5.052  0.152E+00  0.152E+00
  -5.042  0.157E+00  0.157E+00
  -5.032  0.162E+00  0.162E+00
  -5.022  0.168E+00  0.168E+00
  -5.012  0.173E+00  0.173E+00
  -5.002  0.177E+00  0.177E+00
  -4.992  0.181E+00  0.181E+00
  -4.982  0.184E+00  0.184E+00
  -4.972  0.186E+00  0.186E+00
  -4.962  0.187E+00  0.187E+00
  -4.952  0.187E+00  0.187E+00
  -4.942  0.185E+00  0.185E+00
  -4.932  0.182E+00  0.182E+00
  -4.922  0.178E+00  0.178E+00
  -4.912  0.173E+00  0.173E+00
  -4.902  0.167E+00  0.167E+00
  -4.892  0.159E+00  0.159E+00
  -4.882  0.152E+00  0.152E+00
  -4.872  0.143E+00  0.143E+00
  -4.862  0.134E+00  0.134E+00
  -4.852  0.126E+00  0.126E+00
  -4.842  0.117E+00  0.117E+00
  -4.832  0.109E+00  0.109E+00
  -4.822  0.101E+00  0.101E+00
  -4.812  0.946E-01  0.946E-01
  -4.802  0.888E-01  0.888E-01
  -4.792  0.842E-01  0.842E-01
  -4.782  0.809E-01  0.809E-01
  -4.772  0.790E-01  0.790E-01
  -4.762  0.784E-01  0.784E-01
  -4.752  0.793E-01  0.793E-01
  -4.742  0.815E-01  0.815E-01
  -4.732  0.851E-01  0.851E-01
  -4.722  0.900E-01  0.900E-01
  -4.712  0.959E-01  0.959E-01
  -4.702  0.103E+00  0.103E+00
  -4.692  0.111E+00  0.111E+00
  -4.682  0.119E+00  0.119E+00
  -4.672  0.127E+00  0.127E+00
  -4.662  0.136E+00  0.136E+00
  -4.652  0.145E+00  0.145E+00
  -4.642  0.153E+00  0.153E+00
  -4.632  0.161E+00  0.161E+00
  -4.622  0.168E+00  0.168E+00
  -4.612  0.174E+00  0.174E+00
  -4.602  0.178E+00  0.178E+00
  -4.592  0.181E+00  0.181E+00
  -4.582  0.183E+00  0.183E+00
  -4.572  0.184E+00  0.184E+00
  -4.562  0.182E+00  0.182E+00
  -4.552  0.179E+00  0.179E+00
  -4.542  0.175E+00  0.175E+00
  -4.532  0.169E+00  0.169E+00
  -4.522  0.162E+00  0.162E+00
  -4.512  0.154E+00  0.154E+00
  -4.502  0.145E+00  0.145E+00
  -4.492  0.135E+00  0.135E+00
  -4.482  0.125E+00  0.125E+00
  -4.472  0.114E+00  0.114E+00
  -4.462  0.104E+00  0.104E+00
  -4.452  0.940E-01  0.940E-01
  -4.442  0.844E-01  0.844E-01
  -4.432  0.754E-01  0.754E-01
  -4.422  0.674E-01  0.674E-01
  -4.412  0.603E-01  0.603E-01
  -4.402  0.544E-01  0.544E-01
  -4.392  0.497E-01  0.497E-01
  -4.382  0.463E-01  0.463E-01
  -4.372  0.443E-01  0.443E-01
  -4.362  0.437E-01  0.437E-01
  -4.352  0.446E-01  0.446E-01
  -4.342  0.469E-01  0.469E-01
  -4.332  0.506E-01  0.506E-01
  -4.322  0.556E-01  0.556E-01
  -4.312  0.620E-01  0.620E-01
  -4.302  0.695E-01  0.695E-01
  -4.292  0.782E-01  0.782E-01
  -4.282  0.877E-01  0.877E-01
  -4.272  0.980E-01  0.980E-01
  -4.262  0.109E+00  0.109E+00
  -4.252  0.120E+00  0.120E+00
  -4.242  0.131E+00  0.131E+00
  -4.232  0.142E+00  0.142E+00
  -4.222  0.152E+00  0.152E+00
  -4.212  0.162E+00  0.162E+00
  -4.202  0.170E+00  0.170E+00
  -4.192  0.178E+00  0.178E+00
  -4.182  0.183E+00  0.183E+00
  -4.172  0.187E+00  0.187E+00
  -4.162  0.189E+00  0.189E+00
  -4.152  0.190E+00  0.190E+00
  -4.142  0.188E+00  0.188E+00
  -4.132  0.184E+00  0.184E+00
  -4.122  0.179E+00  0.179E+00
  -4.112  0.172E+00  0.172E+00
  -4.102  0.164E+00  0.164E+00
  -4.092  0.155E+00  0.155E+00
  -4.082  0.145E+00  0.145E+00
  -4.072  0.134E+00  0.134E+00
  -4.062  0.123E+00  0.123E+00
  -4.052  0.111E+00  0.111E+00
  -4.042  0.100E+00  0.100E+00
  -4.032  0.895E-01  0.895E-01
  -4.022  0.794E-01  0.794E-01
  -4.012  0.701E-01  0.701E-01
  -4.002  0.618E-01  0.618E-01
  -3.992  0.546E-01  0.546E-01
  -3.982  0.485E-01  0.485E-01
  -3.972  0.437E-01  0.437E-01
  -3.962  0.402E-01  0.402E-01
  -3.952  0.381E-01  0.381E-01
  -3.942  0.372E-01  0.372E-01
  -3.932  0.378E-01  0.378E-01
  -3.922  0.397E-01  0.397E-01
  -3.912  0.429E-01  0.429E-01
  -3.902  0.475E-01  0.475E-01
  -3.892  0.532E-01  0.532E-01
  -3.882  0.602E-01  0.602E-01
  -3.872  0.683E-01  0.683E-01
  -3.862  0.773E-01  0.773E-01
  -3.852  0.872E-01  0.872E-01
  -3.842  0.979E-01  0.979E-01
  -3.832  0.109E+00  0.109E+00
  -3.822  0.121E+00  0.121E+00
  -3.812  0.132E+00  0.132E+00
  -3.802  0.144E+00  0.144E+00
  -3.792  0.155E+00  0.155E+00
  -3.782  0.166E+00  0.166E+00
  -3.772  0.176E+00  0.176E+00
  -3.762  0.185E+00  0.185E+00
  -3.752  0.194E+00  0.194E+00
  -3.742  0.201E+00  0.201E+00
  -3.732  0.206E+00  0.206E+00
  -3.722  0.211E+00  0.211E+00
  -3.712  0.213E+00  0.213E+00
  -3.702  0.215E+00  0.215E+00
  -3.692  0.215E+00  0.215E+00
  -3.682  0.214E+00  0.214E+00
  -3.672  0.211E+00  0.211E+00
  -3.662  0.207E+00  0.207E+00
  -3.652  0.202E+00  0.202E+00
  -3.642  0.196E+00  0.196E+00
  -3.632  0.189E+00  0.189E+00
  -3.622  0.181E+00  0.181E+00
  -3.612  0.173E+00  0.173E+00
  -3.602  0.164E+00  0.164E+00
  -3.592  0.155E+00  0.155E+00
  -3.582  0.145E+00  0.145E+00
  -3.572  0.136E+00  0.136E+00
  -3.562  0.126E+00  0.126E+00
  -3.552  0.117E+00  0.117E+00
  -3.542  0.107E+00  0.107E+00
  -3.532  0.983E-01  0.983E-01
  -3.522  0.898E-01  0.898E-01
  -3.512  0.820E-01  0.820E-01
  -3.502  0.748E-01  0.748E-01
  -3.492  0.684E-01  0.684E-01
  -3.482  0.628E-01  0.628E-01
  -3.472  0.582E-01  0.582E-01
  -3.462  0.544E-01  0.544E-01
  -3.452  0.516E-01  0.516E-01
  -3.442  0.497E-01  0.497E-01
  -3.432  0.486E-01  0.486E-01
  -3.422  0.484E-01  0.484E-01
  -3.412  0.489E-01  0.489E-01
  -3.402  0.500E-01  0.500E-01
  -3.392  0.516E-01  0.516E-01
  -3.382  0.537E-01  0.537E-01
  -3.372  0.559E-01  0.559E-01
  -3.362  0.584E-01  0.584E-01
  -3.352  0.608E-01  0.608E-01
  -3.342  0.631E-01  0.631E-01
  -3.332  0.652E-01  0.652E-01
  -3.322  0.670E-01  0.670E-01
  -3.312  0.684E-01  0.684E-01
  -3.302  0.695E-01  0.695E-01
  -3.292  0.703E-01  0.703E-01
  -3.282  0.706E-01  0.706E-01
  -3.272  0.706E-01  0.706E-01
  -3.262  0.704E-01  0.704E-01
  -3.252  0.699E-01  0.699E-01
  -3.242  0.693E-01  0.693E-01
  -3.232  0.687E-01  0.687E-01
  -3.222  0.681E-01  0.681E-01
  -3.212  0.675E-01  0.675E-01
  -3.202  0.671E-01  0.671E-01
  -3.192  0.668E-01  0.668E-01
  -3.182  0.667E-01  0.667E-01
  -3.172  0.667E-01  0.667E-01
  -3.162  0.669E-01  0.669E-01
  -3.152  0.671E-01  0.671E-01
  -3.142  0.674E-01  0.674E-01
  -3.132  0.677E-01  0.677E-01
  -3.122  0.679E-01  0.679E-01
  -3.112  0.681E-01  0.681E-01
  -3.102  0.681E-01  0.681E-01
  -3.092  0.680E-01  0.680E-01
  -3.082  0.677E-01  0.677E-01
  -3.072  0.673E-01  0.673E-01
  -3.062  0.667E-01  0.667E-01
  -3.052  0.661E-01  0.661E-01
  -3.042  0.655E-01  0.655E-01
  -3.032  0.650E-01  0.650E-01
  -3.022  0.645E-01  0.645E-01
  -3.012  0.642E-01  0.642E-01
  -3.002  0.640E-01  0.640E-01
  -2.992  0.641E-01  0.641E-01
  -2.982  0.643E-01  0.643E-01
  -2.972  0.648E-01  0.648E-01
  -2.962  0.654E-01  0.654E-01
  -2.952  0.662E-01  0.662E-01
  -2.942  0.670E-01  0.670E-01
  -2.932  0.677E-01  0.677E-01
  -2.922  0.683E-01  0.683E-01
  -2.912  0.687E-01  0.687E-01
  -2.902  0.689E-01  0.689E-01
  -2.892  0.686E-01  0.686E-01
  -2.882  0.679E-01  0.679E-01
  -2.872  0.668E-01  0.668E-01
  -2.862  0.652E-01  0.652E-01
  -2.852  0.631E-01  0.631E-01
  -2.842  0.605E-01  0.605E-01
  -2.832  0.576E-01  0.576E-01
  -2.822  0.543E-01  0.543E-01
  -2.812  0.507E-01  0.507E-01
  -2.802  0.470E-01  0.470E-01
  -2.792  0.432E-01  0.432E-01
  -2.782  0.394E-01  0.394E-01
  -2.772  0.358E-01  0.358E-01
  -2.762  0.324E-01  0.324E-01
  -2.752  0.293E-01  0.293E-01
  -2.742  0.267E-01  0.267E-01
  -2.732  0.246E-01  0.246E-01
  -2.722  0.231E-01  0.231E-01
  -2.712  0.222E-01  0.222E-01
  -2.702  0.222E-01  0.222E-01
  -2.692  0.229E-01  0.229E-01
  -2.682  0.246E-01  0.246E-01
  -2.672  0.272E-01  0.272E-01
  -2.662  0.308E-01  0.308E-01
  -2.652  0.355E-01  0.355E-01
  -2.642  0.414E-01  0.414E-01
  -2.632  0.485E-01  0.485E-01
  -2.622  0.568E-01  0.568E-01
  -2.612  0.664E-01  0.664E-01
  -2.602  0.773E-01  0.773E-01
  -2.592  0.894E-01  0.894E-01
  -2.582  0.103E+00  0.103E+00
  -2.572  0.117E+00  0.117E+00
  -2.562  0.133E+00  0.133E+00
  -2.552  0.150E+00  0.150E+00
  -2.542  0.167E+00  0.167E+00
  -2.532  0.186E+00  0.186E+00
  -2.522  0.204E+00  0.204E+00
  -2.512  0.223E+00  0.223E+00
  -2.502  0.242E+00  0.242E+00
  -2.492  0.261E+00  0.261E+00
  -2.482  0.280E+00  0.280E+00
  -2.472  0.297E+00  0.297E+00
  -2.462  0.314E+00  0.314E+00
  -2.452  0.329E+00  0.329E+00
  -2.442  0.343E+00  0.343E+00
  -2.432  0.356E+00  0.356E+00
  -2.422  0.367E+00  0.367E+00
  -2.412  0.375E+00  0.375E+00
  -2.402  0.382E+00  0.382E+00
  -2.392  0.387E+00  0.387E+00
  -2.382  0.389E+00  0.389E+00
  -2.372  0.390E+00  0.390E+00
  -2.362  0.389E+00  0.389E+00
  -2.352  0.386E+00  0.386E+00
  -2.342  0.381E+00  0.381E+00
  -2.332  0.375E+00  0.375E+00
  -2.322  0.367E+00  0.367E+00
  -2.312  0.358E+00  0.358E+00
  -2.302  0.349E+00  0.349E+00
  -2.292  0.338E+00  0.338E+00
  -2.282  0.327E+00  0.327E+00
  -2.272  0.316E+00  0.316E+00
  -2.262  0.304E+00  0.304E+00
  -2.252  0.292E+00  0.292E+00
  -2.242  0.280E+00  0.280E+00
  -2.232  0.269E+00  0.269E+00
  -2.222  0.257E+00  0.257E+00
  -2.212  0.245E+00  0.245E+00
  -2.202  0.234E+00  0.234E+00
  -2.192  0.223E+00  0.223E+00
  -2.182  0.212E+00  0.212E+00
  -2.172  0.201E+00  0.201E+00
  -2.162  0.191E+00  0.191E+00
  -2.152  0.180E+00  0.180E+00
  -2.142  0.171E+00  0.171E+00
  -2.132  0.161E+00  0.161E+00
  -2.122  0.152E+00  0.152E+00
  -2.112  0.144E+00  0.144E+00
  -2.102  0.136E+00  0.136E+00
  -2.092  0.128E+00  0.128E+00
  -2.082  0.121E+00  0.121E+00
  -2.072  0.115E+00  0.115E+00
  -2.062  0.110E+00  0.110E+00
  -2.052  0.105E+00  0.105E+00
  -2.042  0.100E+00  0.100E+00
  -2.032  0.965E-01  0.965E-01
  -2.022  0.932E-01  0.932E-01
  -2.012  0.905E-01  0.905E-01
  -2.002  0.883E-01  0.883E-01
  -1.992  0.865E-01  0.865E-01
  -1.982  0.852E-01  0.852E-01
  -1.972  0.844E-01  0.844E-01
  -1.962  0.840E-01  0.840E-01
  -1.952  0.840E-01  0.840E-01
  -1.942  0.845E-01  0.845E-01
  -1.932  0.854E-01  0.854E-01
  -1.922  0.867E-01  0.867E-01
  -1.912  0.885E-01  0.885E-01
  -1.902  0.907E-01  0.907E-01
  -1.892  0.933E-01  0.933E-01
  -1.882  0.961E-01  0.961E-01
  -1.872  0.992E-01  0.992E-01
  -1.862  0.102E+00  0.102E+00
  -1.852  0.105E+00  0.105E+00
  -1.842  0.108E+00  0.108E+00
  -1.832  0.111E+00  0.111E+00
  -1.822  0.113E+00  0.113E+00
  -1.812  0.115E+00  0.115E+00
  -1.802  0.116E+00  0.116E+00
  -1.792  0.117E+00  0.117E+00
  -1.782  0.116E+00  0.116E+00
  -1.772  0.115E+00  0.115E+00
  -1.762  0.114E+00  0.114E+00
  -1.752  0.111E+00  0.111E+00
  -1.742  0.108E+00  0.108E+00
  -1.732  0.105E+00  0.105E+00
  -1.722  0.101E+00  0.101E+00
  -1.712  0.968E-01  0.968E-01
  -1.702  0.927E-01  0.927E-01
  -1.692  0.887E-01  0.887E-01
  -1.682  0.849E-01  0.849E-01
  -1.672  0.814E-01  0.814E-01
  -1.662  0.782E-01  0.782E-01
  -1.652  0.754E-01  0.754E-01
  -1.642  0.731E-01  0.731E-01
  -1.632  0.711E-01  0.711E-01
  -1.622  0.695E-01  0.695E-01
  -1.612  0.681E-01  0.681E-01
  -1.602  0.670E-01  0.670E-01
  -1.592  0.661E-01  0.661E-01
  -1.582  0.652E-01  0.652E-01
  -1.572  0.643E-01  0.643E-01
  -1.562  0.634E-01  0.634E-01
  -1.552  0.624E-01  0.624E-01
  -1.542  0.614E-01  0.614E-01
  -1.532  0.602E-01  0.602E-01
  -1.522  0.590E-01  0.590E-01
  -1.512  0.578E-01  0.578E-01
  -1.502  0.566E-01  0.566E-01
  -1.492  0.555E-01  0.555E-01
  -1.482  0.546E-01  0.546E-01
  -1.472  0.540E-01  0.540E-01
  -1.462  0.536E-01  0.536E-01
  -1.452  0.536E-01  0.536E-01
  -1.442  0.539E-01  0.539E-01
  -1.432  0.547E-01  0.547E-01
  -1.422  0.559E-01  0.559E-01
  -1.412  0.575E-01  0.575E-01
  -1.402  0.595E-01  0.595E-01
  -1.392  0.619E-01  0.619E-01
  -1.382  0.645E-01  0.645E-01
  -1.372  0.674E-01  0.674E-01
  -1.362  0.706E-01  0.706E-01
  -1.352  0.740E-01  0.740E-01
  -1.342  0.775E-01  0.775E-01
  -1.332  0.812E-01  0.812E-01
  -1.322  0.850E-01  0.850E-01
  -1.312  0.889E-01  0.889E-01
  -1.302  0.930E-01  0.930E-01
  -1.292  0.973E-01  0.973E-01
  -1.282  0.102E+00  0.102E+00
  -1.272  0.107E+00  0.107E+00
  -1.262  0.112E+00  0.112E+00
  -1.252  0.117E+00  0.117E+00
  -1.242  0.123E+00  0.123E+00
  -1.232  0.129E+00  0.129E+00
  -1.222  0.136E+00  0.136E+00
  -1.212  0.143E+00  0.143E+00
  -1.202  0.150E+00  0.150E+00
  -1.192  0.158E+00  0.158E+00
  -1.182  0.166E+00  0.166E+00
  -1.172  0.174E+00  0.174E+00
  -1.162  0.183E+00  0.183E+00
  -1.152  0.191E+00  0.191E+00
  -1.142  0.200E+00  0.200E+00
  -1.132  0.208E+00  0.208E+00
  -1.122  0.217E+00  0.217E+00
  -1.112  0.225E+00  0.225E+00
  -1.102  0.234E+00  0.234E+00
  -1.092  0.242E+00  0.242E+00
  -1.082  0.250E+00  0.250E+00
  -1.072  0.257E+00  0.257E+00
  -1.062  0.264E+00  0.264E+00
  -1.052  0.271E+00  0.271E+00
  -1.042  0.278E+00  0.278E+00
  -1.032  0.284E+00  0.284E+00
  -1.022  0.290E+00  0.290E+00
  -1.012  0.296E+00  0.296E+00
  -1.002  0.300E+00  0.300E+00
  -0.992  0.304E+00  0.304E+00
  -0.982  0.307E+00  0.307E+00
  -0.972  0.309E+00  0.309E+00
  -0.962  0.310E+00  0.310E+00
  -0.952  0.310E+00  0.310E+00
  -0.942  0.308E+00  0.308E+00
  -0.932  0.305E+00  0.305E+00
  -0.922  0.300E+00  0.300E+00
  -0.912  0.293E+00  0.293E+00
  -0.902  0.285E+00  0.285E+00
  -0.892  0.276E+00  0.276E+00
  -0.882  0.265E+00  0.265E+00
  -0.872  0.253E+00  0.253E+00
  -0.862  0.240E+00  0.240E+00
  -0.852  0.227E+00  0.227E+00
  -0.842  0.212E+00  0.212E+00
  -0.832  0.198E+00  0.198E+00
  -0.822  0.183E+00  0.183E+00
  -0.812  0.168E+00  0.168E+00
  -0.802  0.154E+00  0.154E+00
  -0.792  0.141E+00  0.141E+00
  -0.782  0.128E+00  0.128E+00
  -0.772  0.116E+00  0.116E+00
  -0.762  0.105E+00  0.105E+00
  -0.752  0.950E-01  0.950E-01
  -0.742  0.861E-01  0.861E-01
  -0.732  0.784E-01  0.784E-01
  -0.722  0.717E-01  0.717E-01
  -0.712  0.660E-01  0.660E-01
  -0.702  0.613E-01  0.613E-01
  -0.692  0.574E-01  0.574E-01
  -0.682  0.544E-01  0.544E-01
  -0.672  0.521E-01  0.521E-01
  -0.662  0.505E-01  0.505E-01
  -0.652  0.494E-01  0.494E-01
  -0.642  0.488E-01  0.488E-01
  -0.632  0.487E-01  0.487E-01
  -0.622  0.488E-01  0.488E-01
  -0.612  0.492E-01  0.492E-01
  -0.602  0.497E-01  0.497E-01
  -0.592  0.503E-01  0.503E-01
  -0.582  0.510E-01  0.510E-01
  -0.572  0.515E-01  0.515E-01
  -0.562  0.520E-01  0.520E-01
  -0.552  0.523E-01  0.523E-01
  -0.542  0.524E-01  0.524E-01
  -0.532  0.523E-01  0.523E-01
  -0.522  0.521E-01  0.521E-01
  -0.512  0.516E-01  0.516E-01
  -0.502  0.511E-01  0.511E-01
  -0.492  0.504E-01  0.504E-01
  -0.482  0.497E-01  0.497E-01
  -0.472  0.490E-01  0.490E-01
  -0.462  0.483E-01  0.483E-01
  -0.452  0.478E-01  0.478E-01
  -0.442  0.475E-01  0.475E-01
  -0.432  0.474E-01  0.474E-01
  -0.422  0.476E-01  0.476E-01
  -0.412  0.480E-01  0.480E-01
  -0.402  0.487E-01  0.487E-01
  -0.392  0.497E-01  0.497E-01
  -0.382  0.509E-01  0.509E-01
  -0.372  0.522E-01  0.522E-01
  -0.362  0.537E-01  0.537E-01
  -0.352  0.553E-01  0.553E-01
  -0.342  0.568E-01  0.568E-01
  -0.332  0.584E-01  0.584E-01
  -0.322  0.599E-01  0.599E-01
  -0.312  0.614E-01  0.614E-01
  -0.302  0.627E-01  0.627E-01
  -0.292  0.640E-01  0.640E-01
  -0.282  0.651E-01  0.651E-01
  -0.272  0.662E-01  0.662E-01
  -0.262  0.673E-01  0.673E-01
  -0.252  0.683E-01  0.683E-01
  -0.242  0.694E-01  0.694E-01
  -0.232  0.705E-01  0.705E-01
  -0.222  0.716E-01  0.716E-01
  -0.212  0.728E-01  0.728E-01
  -0.202  0.741E-01  0.741E-01
  -0.192  0.753E-01  0.753E-01
  -0.182  0.765E-01  0.765E-01
  -0.172  0.775E-01  0.775E-01
  -0.162  0.784E-01  0.784E-01
  -0.152  0.790E-01  0.790E-01
  -0.142  0.793E-01  0.793E-01
  -0.132  0.791E-01  0.791E-01
  -0.122  0.785E-01  0.785E-01
  -0.112  0.774E-01  0.774E-01
  -0.102  0.757E-01  0.757E-01
  -0.092  0.735E-01  0.735E-01
  -0.082  0.707E-01  0.707E-01
  -0.072  0.675E-01  0.675E-01
  -0.062  0.638E-01  0.638E-01
  -0.052  0.598E-01  0.598E-01
  -0.042  0.555E-01  0.555E-01
  -0.032  0.509E-01  0.509E-01
  -0.022  0.463E-01  0.463E-01
  -0.012  0.417E-01  0.417E-01
  -0.002  0.372E-01  0.372E-01
   0.008  0.328E-01  0.328E-01
   0.018  0.286E-01  0.286E-01
   0.028  0.248E-01  0.248E-01
   0.038  0.212E-01  0.212E-01
   0.048  0.180E-01  0.180E-01
   0.058  0.151E-01  0.151E-01
   0.068  0.126E-01  0.126E-01
   0.078  0.105E-01  0.105E-01
   0.088  0.873E-02  0.873E-02
   0.098  0.730E-02  0.730E-02
   0.108  0.619E-02  0.619E-02
   0.118  0.539E-02  0.539E-02
   0.128  0.489E-02  0.489E-02
   0.138  0.467E-02  0.467E-02
   0.148  0.473E-02  0.473E-02
   0.158  0.505E-02  0.505E-02
   0.168  0.565E-02  0.565E-02
   0.178  0.652E-02  0.652E-02
   0.188  0.767E-02  0.767E-02
   0.198  0.910E-02  0.910E-02
   0.208  0.108E-01  0.108E-01
   0.218  0.128E-01  0.128E-01
   0.228  0.151E-01  0.151E-01
   0.238  0.177E-01  0.177E-01
   0.248  0.206E-01  0.206E-01
   0.258  0.238E-01  0.238E-01
   0.268  0.272E-01  0.272E-01
   0.278  0.308E-01  0.308E-01
   0.288  0.346E-01  0.346E-01
   0.298  0.385E-01  0.385E-01
   0.308  0.426E-01  0.426E-01
   0.318  0.466E-01  0.466E-01
   0.328  0.507E-01  0.507E-01
   0.338  0.546E-01  0.546E-01
   0.348  0.584E-01  0.584E-01
   0.358  0.620E-01  0.620E-01
   0.368  0.653E-01  0.653E-01
   0.378  0.683E-01  0.683E-01
   0.388  0.709E-01  0.709E-01
   0.398  0.731E-01  0.731E-01
   0.408  0.748E-01  0.748E-01
   0.418  0.760E-01  0.760E-01
   0.428  0.767E-01  0.767E-01
   0.438  0.769E-01  0.769E-01
   0.448  0.767E-01  0.767E-01
   0.458  0.759E-01  0.759E-01
   0.468  0.747E-01  0.747E-01
   0.478  0.731E-01  0.731E-01
   0.488  0.712E-01  0.712E-01
   0.498  0.689E-01  0.689E-01
   0.508  0.665E-01  0.665E-01
   0.518  0.638E-01  0.638E-01
   0.528  0.611E-01  0.611E-01
   0.538  0.584E-01  0.584E-01
   0.548  0.557E-01  0.557E-01
   0.558  0.532E-01  0.532E-01
   0.568  0.508E-01  0.508E-01
   0.578  0.485E-01  0.485E-01
   0.588  0.465E-01  0.465E-01
   0.598  0.448E-01  0.448E-01
   0.608  0.432E-01  0.432E-01
   0.618  0.419E-01  0.419E-01
   0.628  0.408E-01  0.408E-01
   0.638  0.398E-01  0.398E-01
   0.648  0.390E-01  0.390E-01
   0.658  0.382E-01  0.382E-01
   0.668  0.376E-01  0.376E-01
   0.678  0.369E-01  0.369E-01
   0.688  0.363E-01  0.363E-01
   0.698  0.358E-01  0.358E-01
   0.708  0.352E-01  0.352E-01
   0.718  0.347E-01  0.347E-01
   0.728  0.342E-01  0.342E-01
   0.738  0.338E-01  0.338E-01
   0.748  0.334E-01  0.334E-01
   0.758  0.332E-01  0.332E-01
   0.768  0.331E-01  0.331E-01
   0.778  0.332E-01  0.332E-01
   0.788  0.335E-01  0.335E-01
   0.798  0.339E-01  0.339E-01
   0.808  0.345E-01  0.345E-01
   0.818  0.352E-01  0.352E-01
   0.828  0.361E-01  0.361E-01
   0.838  0.370E-01  0.370E-01
   0.848  0.379E-01  0.379E-01
   0.858  0.387E-01  0.387E-01
   0.868  0.394E-01  0.394E-01
   0.878  0.400E-01  0.400E-01
   0.888  0.404E-01  0.404E-01
   0.898  0.405E-01  0.405E-01
   0.908  0.402E-01  0.402E-01
   0.918  0.397E-01  0.397E-01
   0.928  0.389E-01  0.389E-01
   0.938  0.377E-01  0.377E-01
   0.948  0.363E-01  0.363E-01
   0.958  0.345E-01  0.345E-01
   0.968  0.326E-01  0.326E-01
   0.978  0.305E-01  0.305E-01
   0.988  0.283E-01  0.283E-01
   0.998  0.260E-01  0.260E-01
   1.008  0.238E-01  0.238E-01
   1.018  0.216E-01  0.216E-01
   1.028  0.196E-01  0.196E-01
   1.038  0.177E-01  0.177E-01
   1.048  0.162E-01  0.162E-01
   1.058  0.148E-01  0.148E-01
   1.068  0.139E-01  0.139E-01
   1.078  0.132E-01  0.132E-01
   1.088  0.129E-01  0.129E-01
   1.098  0.131E-01  0.131E-01
   1.108  0.135E-01  0.135E-01
   1.118  0.144E-01  0.144E-01
   1.128  0.157E-01  0.157E-01
   1.138  0.173E-01  0.173E-01
   1.148  0.192E-01  0.192E-01
   1.158  0.214E-01  0.214E-01
   1.168  0.238E-01  0.238E-01
   1.178  0.264E-01  0.264E-01
   1.188  0.292E-01  0.292E-01
   1.198  0.320E-01  0.320E-01
   1.208  0.347E-01  0.347E-01
   1.218  0.374E-01  0.374E-01
   1.228  0.399E-01  0.399E-01
   1.238  0.422E-01  0.422E-01
   1.248  0.443E-01  0.443E-01
   1.258  0.460E-01  0.460E-01
   1.268  0.473E-01  0.473E-01
   1.278  0.483E-01  0.483E-01
   1.288  0.489E-01  0.489E-01
   1.298  0.491E-01  0.491E-01
   1.308  0.491E-01  0.491E-01
   1.318  0.487E-01  0.487E-01
   1.328  0.482E-01  0.482E-01
   1.338  0.475E-01  0.475E-01
   1.348  0.468E-01  0.468E-01
   1.358  0.461E-01  0.461E-01
   1.368  0.455E-01  0.455E-01
   1.378  0.450E-01  0.450E-01
   1.388  0.447E-01  0.447E-01
   1.398  0.448E-01  0.448E-01
   1.408  0.450E-01  0.450E-01
   1.418  0.456E-01  0.456E-01
   1.428  0.465E-01  0.465E-01
   1.438  0.476E-01  0.476E-01
   1.448  0.489E-01  0.489E-01
   1.458  0.503E-01  0.503E-01
   1.468  0.519E-01  0.519E-01
   1.478  0.535E-01  0.535E-01
   1.488  0.551E-01  0.551E-01
   1.498  0.565E-01  0.565E-01
   1.508  0.578E-01  0.578E-01
   1.518  0.589E-01  0.589E-01
   1.528  0.596E-01  0.596E-01
   1.538  0.600E-01  0.600E-01
   1.548  0.601E-01  0.601E-01
   1.558  0.598E-01  0.598E-01
   1.568  0.591E-01  0.591E-01
   1.578  0.580E-01  0.580E-01
   1.588  0.565E-01  0.565E-01
   1.598  0.547E-01  0.547E-01
   1.608  0.526E-01  0.526E-01
   1.618  0.503E-01  0.503E-01
   1.628  0.477E-01  0.477E-01
   1.638  0.449E-01  0.449E-01
   1.648  0.420E-01  0.420E-01
   1.658  0.391E-01  0.391E-01
   1.668  0.362E-01  0.362E-01
   1.678  0.333E-01  0.333E-01
   1.688  0.304E-01  0.304E-01
   1.698  0.277E-01  0.277E-01
   1.708  0.252E-01  0.252E-01
   1.718  0.229E-01  0.229E-01
   1.728  0.207E-01  0.207E-01
   1.738  0.188E-01  0.188E-01
   1.748  0.170E-01  0.170E-01
   1.758  0.155E-01  0.155E-01
   1.768  0.142E-01  0.142E-01
   1.778  0.131E-01  0.131E-01
   1.788  0.122E-01  0.122E-01
   1.798  0.115E-01  0.115E-01
   1.808  0.109E-01  0.109E-01
   1.818  0.105E-01  0.105E-01
   1.828  0.102E-01  0.102E-01
   1.838  0.101E-01  0.101E-01
   1.848  0.101E-01  0.101E-01
   1.858  0.103E-01  0.103E-01
   1.868  0.107E-01  0.107E-01
   1.878  0.112E-01  0.112E-01
   1.888  0.120E-01  0.120E-01
   1.898  0.130E-01  0.130E-01
   1.908  0.143E-01  0.143E-01
   1.918  0.159E-01  0.159E-01
   1.928  0.178E-01  0.178E-01
   1.938  0.201E-01  0.201E-01
   1.948  0.227E-01  0.227E-01
   1.958  0.256E-01  0.256E-01
   1.968  0.290E-01  0.290E-01
   1.978  0.326E-01  0.326E-01
   1.988  0.366E-01  0.366E-01
   1.998  0.408E-01  0.408E-01
   2.008  0.452E-01  0.452E-01
   2.018  0.498E-01  0.498E-01
   2.028  0.544E-01  0.544E-01
   2.038  0.589E-01  0.589E-01
   2.048  0.632E-01  0.632E-01
   2.058  0.673E-01  0.673E-01
   2.068  0.710E-01  0.710E-01
   2.078  0.743E-01  0.743E-01
   2.088  0.770E-01  0.770E-01
   2.098  0.790E-01  0.790E-01
   2.108  0.804E-01  0.804E-01
   2.118  0.810E-01  0.810E-01
   2.128  0.808E-01  0.808E-01
   2.138  0.800E-01  0.800E-01
   2.148  0.783E-01  0.783E-01
   2.158  0.760E-01  0.760E-01
   2.168  0.731E-01  0.731E-01
   2.178  0.696E-01  0.696E-01
   2.188  0.657E-01  0.657E-01
   2.198  0.615E-01  0.615E-01
   2.208  0.569E-01  0.569E-01
   2.218  0.523E-01  0.523E-01
   2.228  0.476E-01  0.476E-01
   2.238  0.429E-01  0.429E-01
   2.248  0.384E-01  0.384E-01
   2.258  0.341E-01  0.341E-01
   2.268  0.300E-01  0.300E-01
   2.278  0.262E-01  0.262E-01
   2.288  0.228E-01  0.228E-01
   2.298  0.198E-01  0.198E-01
   2.308  0.171E-01  0.171E-01
   2.318  0.148E-01  0.148E-01
   2.328  0.129E-01  0.129E-01
   2.338  0.113E-01  0.113E-01
   2.348  0.102E-01  0.102E-01
   2.358  0.937E-02  0.937E-02
   2.368  0.890E-02  0.890E-02
   2.378  0.876E-02  0.876E-02
   2.388  0.892E-02  0.892E-02
   2.398  0.939E-02  0.939E-02
   2.408  0.101E-01  0.101E-01
   2.418  0.111E-01  0.111E-01
   2.428  0.124E-01  0.124E-01
   2.438  0.138E-01  0.138E-01
   2.448  0.154E-01  0.154E-01
   2.458  0.172E-01  0.172E-01
   2.468  0.191E-01  0.191E-01
   2.478  0.211E-01  0.211E-01
   2.488  0.231E-01  0.231E-01
   2.498  0.251E-01  0.251E-01
   2.508  0.271E-01  0.271E-01
   2.518  0.289E-01  0.289E-01
   2.528  0.306E-01  0.306E-01
   2.538  0.321E-01  0.321E-01
   2.548  0.334E-01  0.334E-01
   2.558  0.344E-01  0.344E-01
   2.568  0.352E-01  0.352E-01
   2.578  0.357E-01  0.357E-01
   2.588  0.359E-01  0.359E-01
   2.598  0.358E-01  0.358E-01
   2.608  0.355E-01  0.355E-01
   2.618  0.349E-01  0.349E-01
   2.628  0.343E-01  0.343E-01
   2.638  0.335E-01  0.335E-01
   2.648  0.328E-01  0.328E-01
   2.658  0.320E-01  0.320E-01
   2.668  0.314E-01  0.314E-01
   2.678  0.310E-01  0.310E-01
   2.688  0.309E-01  0.309E-01
   2.698  0.310E-01  0.310E-01
   2.708  0.316E-01  0.316E-01
   2.718  0.325E-01  0.325E-01
   2.728  0.338E-01  0.338E-01
   2.738  0.356E-01  0.356E-01
   2.748  0.378E-01  0.378E-01
   2.758  0.404E-01  0.404E-01
   2.768  0.433E-01  0.433E-01
   2.778  0.465E-01  0.465E-01
   2.788  0.499E-01  0.499E-01
   2.798  0.534E-01  0.534E-01
   2.808  0.569E-01  0.569E-01
   2.818  0.604E-01  0.604E-01
   2.828  0.636E-01  0.636E-01
   2.838  0.666E-01  0.666E-01
   2.848  0.692E-01  0.692E-01
   2.858  0.714E-01  0.714E-01
   2.868  0.730E-01  0.730E-01
   2.878  0.740E-01  0.740E-01
   2.888  0.745E-01  0.745E-01
   2.898  0.742E-01  0.742E-01
   2.908  0.734E-01  0.734E-01
   2.918  0.719E-01  0.719E-01
   2.928  0.699E-01  0.699E-01
   2.938  0.674E-01  0.674E-01
   2.948  0.643E-01  0.643E-01
   2.958  0.609E-01  0.609E-01
   2.968  0.572E-01  0.572E-01
   2.978  0.533E-01  0.533E-01
   2.988  0.493E-01  0.493E-01
   2.998  0.452E-01  0.452E-01
   3.008  0.411E-01  0.411E-01
   3.018  0.370E-01  0.370E-01
   3.028  0.332E-01  0.332E-01
   3.038  0.295E-01  0.295E-01
   3.048  0.260E-01  0.260E-01
   3.058  0.228E-01  0.228E-01
   3.068  0.199E-01  0.199E-01
   3.078  0.172E-01  0.172E-01
   3.088  0.148E-01  0.148E-01
   3.098  0.127E-01  0.127E-01
   3.108  0.109E-01  0.109E-01
   3.118  0.930E-02  0.930E-02
   3.128  0.793E-02  0.793E-02
   3.138  0.677E-02  0.677E-02
   3.148  0.579E-02  0.579E-02
   3.158  0.498E-02  0.498E-02
   3.168  0.431E-02  0.431E-02
   3.178  0.376E-02  0.376E-02
   3.188  0.333E-02  0.333E-02
   3.198  0.298E-02  0.298E-02
   3.208  0.271E-02  0.271E-02
   3.218  0.251E-02  0.251E-02
   3.228  0.237E-02  0.237E-02
   3.238  0.227E-02  0.227E-02
   3.248  0.223E-02  0.223E-02
   3.258  0.222E-02  0.222E-02
   3.268  0.227E-02  0.227E-02
   3.278  0.236E-02  0.236E-02
   3.288  0.251E-02  0.251E-02
   3.298  0.271E-02  0.271E-02
   3.308  0.299E-02  0.299E-02
   3.318  0.335E-02  0.335E-02
   3.328  0.380E-02  0.380E-02
   3.338  0.436E-02  0.436E-02
   3.348  0.504E-02  0.504E-02
   3.358  0.585E-02  0.585E-02
   3.368  0.681E-02  0.681E-02
   3.378  0.793E-02  0.793E-02
   3.388  0.922E-02  0.922E-02
   3.398  0.107E-01  0.107E-01
   3.408  0.124E-01  0.124E-01
   3.418  0.142E-01  0.142E-01
   3.428  0.163E-01  0.163E-01
   3.438  0.186E-01  0.186E-01
   3.448  0.211E-01  0.211E-01
   3.458  0.238E-01  0.238E-01
   3.468  0.266E-01  0.266E-01
   3.478  0.297E-01  0.297E-01
   3.488  0.328E-01  0.328E-01
   3.498  0.362E-01  0.362E-01
   3.508  0.395E-01  0.395E-01
   3.518  0.430E-01  0.430E-01
   3.528  0.465E-01  0.465E-01
   3.538  0.499E-01  0.499E-01
   3.548  0.532E-01  0.532E-01
   3.558  0.565E-01  0.565E-01
   3.568  0.595E-01  0.595E-01
   3.578  0.624E-01  0.624E-01
   3.588  0.649E-01  0.649E-01
   3.598  0.672E-01  0.672E-01
   3.608  0.691E-01  0.691E-01
   3.618  0.706E-01  0.706E-01
   3.628  0.716E-01  0.716E-01
   3.638  0.722E-01  0.722E-01
   3.648  0.723E-01  0.723E-01
   3.658  0.720E-01  0.720E-01
   3.668  0.712E-01  0.712E-01
   3.678  0.699E-01  0.699E-01
   3.688  0.681E-01  0.681E-01
   3.698  0.659E-01  0.659E-01
   3.708  0.633E-01  0.633E-01
   3.718  0.604E-01  0.604E-01
   3.728  0.572E-01  0.572E-01
   3.738  0.537E-01  0.537E-01
   3.748  0.501E-01  0.501E-01
   3.758  0.464E-01  0.464E-01
   3.768  0.425E-01  0.425E-01
   3.778  0.387E-01  0.387E-01
   3.788  0.350E-01  0.350E-01
   3.798  0.314E-01  0.314E-01
   3.808  0.280E-01  0.280E-01
   3.818  0.247E-01  0.247E-01
   3.828  0.217E-01  0.217E-01
   3.838  0.190E-01  0.190E-01
   3.848  0.166E-01  0.166E-01
   3.858  0.144E-01  0.144E-01
   3.868  0.126E-01  0.126E-01
   3.878  0.110E-01  0.110E-01
   3.888  0.974E-02  0.974E-02
   3.898  0.872E-02  0.872E-02
   3.908  0.793E-02  0.793E-02
   3.918  0.735E-02  0.735E-02
   3.928  0.696E-02  0.696E-02
   3.938  0.672E-02  0.672E-02
   3.948  0.661E-02  0.661E-02
   3.958  0.660E-02  0.660E-02
   3.968  0.665E-02  0.665E-02
   3.978  0.674E-02  0.674E-02
   3.988  0.686E-02  0.686E-02
   3.998  0.697E-02  0.697E-02
   4.008  0.707E-02  0.707E-02
   4.018  0.713E-02  0.713E-02
   4.028  0.715E-02  0.715E-02
   4.038  0.712E-02  0.712E-02
   4.048  0.705E-02  0.705E-02
   4.058  0.693E-02  0.693E-02
   4.068  0.677E-02  0.677E-02
   4.078  0.658E-02  0.658E-02
   4.088  0.638E-02  0.638E-02
   4.098  0.618E-02  0.618E-02
   4.108  0.599E-02  0.599E-02
   4.118  0.584E-02  0.584E-02
   4.128  0.575E-02  0.575E-02
   4.138  0.573E-02  0.573E-02
   4.148  0.580E-02  0.580E-02
   4.158  0.598E-02  0.598E-02
   4.168  0.628E-02  0.628E-02
   4.178  0.672E-02  0.672E-02
   4.188  0.730E-02  0.730E-02
   4.198  0.803E-02  0.803E-02
   4.208  0.890E-02  0.890E-02
   4.218  0.992E-02  0.992E-02
   4.228  0.111E-01  0.111E-01
   4.238  0.124E-01  0.124E-01
   4.248  0.138E-01  0.138E-01
   4.258  0.153E-01  0.153E-01
   4.268  0.168E-01  0.168E-01
   4.278  0.184E-01  0.184E-01
   4.288  0.201E-01  0.201E-01
   4.298  0.218E-01  0.218E-01
   4.308  0.234E-01  0.234E-01
   4.318  0.251E-01  0.251E-01
   4.328  0.267E-01  0.267E-01
   4.338  0.282E-01  0.282E-01
   4.348  0.297E-01  0.297E-01
   4.358  0.311E-01  0.311E-01
   4.368  0.324E-01  0.324E-01
   4.378  0.336E-01  0.336E-01
   4.388  0.348E-01  0.348E-01
   4.398  0.358E-01  0.358E-01
   4.408  0.368E-01  0.368E-01
   4.418  0.376E-01  0.376E-01
   4.428  0.384E-01  0.384E-01
   4.438  0.390E-01  0.390E-01
   4.448  0.396E-01  0.396E-01
   4.458  0.399E-01  0.399E-01
   4.468  0.402E-01  0.402E-01
   4.478  0.403E-01  0.403E-01
   4.488  0.402E-01  0.402E-01
   4.498  0.400E-01  0.400E-01
   4.508  0.397E-01  0.397E-01
   4.518  0.392E-01  0.392E-01
   4.528  0.386E-01  0.386E-01
   4.538  0.379E-01  0.379E-01
   4.548  0.371E-01  0.371E-01
   4.558  0.362E-01  0.362E-01
   4.568  0.353E-01  0.353E-01
   4.578  0.343E-01  0.343E-01
   4.588  0.332E-01  0.332E-01
   4.598  0.322E-01  0.322E-01
   4.608  0.311E-01  0.311E-01
   4.618  0.300E-01  0.300E-01
   4.628  0.289E-01  0.289E-01
   4.638  0.278E-01  0.278E-01
   4.648  0.267E-01  0.267E-01
   4.658  0.255E-01  0.255E-01
   4.668  0.244E-01  0.244E-01
   4.678  0.232E-01  0.232E-01
   4.688  0.219E-01  0.219E-01
   4.698  0.207E-01  0.207E-01
   4.708  0.194E-01  0.194E-01
   4.718  0.180E-01  0.180E-01
   4.728  0.167E-01  0.167E-01
   4.738  0.153E-01  0.153E-01
   4.748  0.140E-01  0.140E-01
   4.758  0.127E-01  0.127E-01
   4.768  0.114E-01  0.114E-01
   4.778  0.101E-01  0.101E-01
   4.788  0.897E-02  0.897E-02
   4.798  0.788E-02  0.788E-02
   4.808  0.688E-02  0.688E-02
   4.818  0.598E-02  0.598E-02
   4.828  0.519E-02  0.519E-02
   4.838  0.452E-02  0.452E-02
   4.848  0.396E-02  0.396E-02
   4.858  0.353E-02  0.353E-02
   4.868  0.322E-02  0.322E-02
   4.878  0.304E-02  0.304E-02
   4.888  0.299E-02  0.299E-02
   4.898  0.307E-02  0.307E-02
   4.908  0.328E-02  0.328E-02
   4.918  0.362E-02  0.362E-02
   4.928  0.409E-02  0.409E-02
   4.938  0.469E-02  0.469E-02
   4.948  0.542E-02  0.542E-02
   4.958  0.628E-02  0.628E-02
   4.968  0.726E-02  0.726E-02
   4.978  0.836E-02  0.836E-02
   4.988  0.957E-02  0.957E-02
   4.998  0.109E-01  0.109E-01
   5.008  0.123E-01  0.123E-01
   5.018  0.137E-01  0.137E-01
   5.028  0.152E-01  0.152E-01
   5.038  0.168E-01  0.168E-01
   5.048  0.183E-01  0.183E-01
   5.058  0.198E-01  0.198E-01
   5.068  0.213E-01  0.213E-01
   5.078  0.227E-01  0.227E-01
   5.088  0.241E-01  0.241E-01
   5.098  0.253E-01  0.253E-01
   5.108  0.264E-01  0.264E-01
   5.118  0.274E-01  0.274E-01
   5.128  0.282E-01  0.282E-01
   5.138  0.288E-01  0.288E-01
   5.148  0.293E-01  0.293E-01
   5.158  0.295E-01  0.295E-01
   5.168  0.296E-01  0.296E-01
   5.178  0.294E-01  0.294E-01
   5.188  0.290E-01  0.290E-01
   5.198  0.285E-01  0.285E-01
   5.208  0.277E-01  0.277E-01
   5.218  0.268E-01  0.268E-01
   5.228  0.257E-01  0.257E-01
   5.238  0.245E-01  0.245E-01
   5.248  0.231E-01  0.231E-01
   5.258  0.217E-01  0.217E-01
   5.268  0.202E-01  0.202E-01
   5.278  0.186E-01  0.186E-01
   5.288  0.170E-01  0.170E-01
   5.298  0.154E-01  0.154E-01
   5.308  0.138E-01  0.138E-01
   5.318  0.124E-01  0.124E-01
   5.328  0.109E-01  0.109E-01
   5.338  0.962E-02  0.962E-02
   5.348  0.841E-02  0.841E-02
   5.358  0.732E-02  0.732E-02
   5.368  0.637E-02  0.637E-02
   5.378  0.555E-02  0.555E-02
   5.388  0.487E-02  0.487E-02
   5.398  0.433E-02  0.433E-02
   5.408  0.393E-02  0.393E-02
   5.418  0.365E-02  0.365E-02
   5.428  0.351E-02  0.351E-02
   5.438  0.347E-02  0.347E-02
   5.448  0.355E-02  0.355E-02
   5.458  0.372E-02  0.372E-02
   5.468  0.398E-02  0.398E-02
   5.478  0.432E-02  0.432E-02
   5.488  0.473E-02  0.473E-02
   5.498  0.519E-02  0.519E-02
   5.508  0.569E-02  0.569E-02
   5.518  0.622E-02  0.622E-02
   5.528  0.676E-02  0.676E-02
   5.538  0.732E-02  0.732E-02
   5.548  0.788E-02  0.788E-02
   5.558  0.842E-02  0.842E-02
   5.568  0.895E-02  0.895E-02
   5.578  0.945E-02  0.945E-02
   5.588  0.994E-02  0.994E-02
   5.598  0.104E-01  0.104E-01
   5.608  0.108E-01  0.108E-01
   5.618  0.112E-01  0.112E-01
   5.628  0.116E-01  0.116E-01
   5.638  0.120E-01  0.120E-01
   5.648  0.123E-01  0.123E-01
   5.658  0.126E-01  0.126E-01
   5.668  0.129E-01  0.129E-01
   5.678  0.132E-01  0.132E-01
   5.688  0.135E-01  0.135E-01
   5.698  0.137E-01  0.137E-01
   5.708  0.139E-01  0.139E-01
   5.718  0.141E-01  0.141E-01
   5.728  0.142E-01  0.142E-01
   5.738  0.142E-01  0.142E-01
   5.748  0.142E-01  0.142E-01
   5.758  0.141E-01  0.141E-01
   5.768  0.139E-01  0.139E-01
   5.778  0.137E-01  0.137E-01
   5.788  0.133E-01  0.133E-01
   5.798  0.129E-01  0.129E-01
   5.808  0.124E-01  0.124E-01
   5.818  0.118E-01  0.118E-01
   5.828  0.111E-01  0.111E-01
   5.838  0.104E-01  0.104E-01
   5.848  0.967E-02  0.967E-02
   5.858  0.889E-02  0.889E-02
   5.868  0.810E-02  0.810E-02
   5.878  0.731E-02  0.731E-02
   5.888  0.654E-02  0.654E-02
   5.898  0.579E-02  0.579E-02
   5.908  0.508E-02  0.508E-02
   5.918  0.441E-02  0.441E-02
   5.928  0.380E-02  0.380E-02
   5.938  0.324E-02  0.324E-02
   5.948  0.273E-02  0.273E-02
   5.958  0.228E-02  0.228E-02
   5.968  0.189E-02  0.189E-02
   5.978  0.155E-02  0.155E-02
   5.988  0.126E-02  0.126E-02
   5.998  0.101E-02  0.101E-02
   6.008  0.808E-03  0.808E-03
   6.018  0.638E-03  0.638E-03
   6.028  0.499E-03  0.499E-03
   6.038  0.387E-03  0.387E-03
   6.048  0.297E-03  0.297E-03
   6.058  0.227E-03  0.227E-03
   6.068  0.171E-03  0.171E-03
   6.078  0.129E-03  0.129E-03
   6.088  0.967E-04  0.967E-04
   6.098  0.728E-04  0.728E-04
   6.108  0.558E-04  0.558E-04
   6.118  0.444E-04  0.444E-04
   6.128  0.382E-04  0.382E-04
   6.138  0.368E-04  0.368E-04
   6.148  0.406E-04  0.406E-04
   6.158  0.503E-04  0.503E-04
   6.168  0.674E-04  0.674E-04
   6.178  0.940E-04  0.940E-04
   6.188  0.133E-03  0.133E-03
   6.198  0.190E-03  0.190E-03
   6.208  0.269E-03  0.269E-03
   6.218  0.379E-03  0.379E-03
   6.228  0.529E-03  0.529E-03
   6.238  0.730E-03  0.730E-03
   6.248  0.999E-03  0.999E-03
   6.258  0.135E-02  0.135E-02
   6.268  0.181E-02  0.181E-02
   6.278  0.241E-02  0.241E-02
   6.288  0.316E-02  0.316E-02
   6.298  0.411E-02  0.411E-02
   6.308  0.529E-02  0.529E-02
   6.318  0.673E-02  0.673E-02
   6.328  0.850E-02  0.850E-02
   6.338  0.106E-01  0.106E-01
   6.348  0.131E-01  0.131E-01
   6.358  0.161E-01  0.161E-01
   6.368  0.195E-01  0.195E-01
   6.378  0.234E-01  0.234E-01
   6.388  0.279E-01  0.279E-01
   6.398  0.329E-01  0.329E-01
   6.408  0.384E-01  0.384E-01
   6.418  0.445E-01  0.445E-01
   6.428  0.510E-01  0.510E-01
   6.438  0.580E-01  0.580E-01
   6.448  0.654E-01  0.654E-01
   6.458  0.730E-01  0.730E-01
   6.468  0.810E-01  0.810E-01
   6.478  0.890E-01  0.890E-01
   6.488  0.971E-01  0.971E-01
   6.498  0.105E+00  0.105E+00
   6.508  0.113E+00  0.113E+00
   6.518  0.120E+00  0.120E+00
   6.528  0.128E+00  0.128E+00
   6.538  0.134E+00  0.134E+00
   6.548  0.140E+00  0.140E+00
   6.558  0.146E+00  0.146E+00
   6.568  0.151E+00  0.151E+00
   6.578  0.155E+00  0.155E+00
   6.588  0.158E+00  0.158E+00
   6.598  0.161E+00  0.161E+00
   6.608  0.163E+00  0.163E+00
   6.618  0.164E+00  0.164E+00
   6.628  0.165E+00  0.165E+00
   6.638  0.166E+00  0.166E+00
   6.648  0.165E+00  0.165E+00
   6.658  0.165E+00  0.165E+00
   6.668  0.164E+00  0.164E+00
   6.678  0.162E+00  0.162E+00
   6.688  0.161E+00  0.161E+00
   6.698  0.159E+00  0.159E+00
   6.708  0.157E+00  0.157E+00
   6.718  0.155E+00  0.155E+00
   6.728  0.153E+00  0.153E+00
   6.738  0.151E+00  0.151E+00
   6.748  0.149E+00  0.149E+00
   6.758  0.148E+00  0.148E+00
   6.768  0.146E+00  0.146E+00
   6.778  0.144E+00  0.144E+00
   6.788  0.142E+00  0.142E+00
   6.798  0.140E+00  0.140E+00
   6.808  0.139E+00  0.139E+00
   6.818  0.137E+00  0.137E+00
   6.828  0.134E+00  0.134E+00
   6.838  0.132E+00  0.132E+00
   6.848  0.130E+00  0.130E+00
   6.858  0.127E+00  0.127E+00
   6.868  0.124E+00  0.124E+00
   6.878  0.120E+00  0.120E+00
   6.888  0.117E+00  0.117E+00
   6.898  0.113E+00  0.113E+00
   6.908  0.109E+00  0.109E+00
   6.918  0.104E+00  0.104E+00
   6.928  0.999E-01  0.999E-01
   6.938  0.953E-01  0.953E-01
   6.948  0.908E-01  0.908E-01
   6.958  0.864E-01  0.864E-01
   6.968  0.822E-01  0.822E-01
   6.978  0.783E-01  0.783E-01
   6.988  0.748E-01  0.748E-01
   6.998  0.719E-01  0.719E-01
   7.008  0.696E-01  0.696E-01
   7.018  0.680E-01  0.680E-01
   7.028  0.671E-01  0.671E-01
   7.038  0.670E-01  0.670E-01
   7.048  0.677E-01  0.677E-01
   7.058  0.691E-01  0.691E-01
   7.068  0.712E-01  0.712E-01
   7.078  0.740E-01  0.740E-01
   7.088  0.774E-01  0.774E-01
   7.098  0.813E-01  0.813E-01
   7.108  0.855E-01  0.855E-01
   7.118  0.899E-01  0.899E-01
   7.128  0.943E-01  0.943E-01
   7.138  0.987E-01  0.987E-01
   7.148  0.103E+00  0.103E+00
   7.158  0.107E+00  0.107E+00
   7.168  0.110E+00  0.110E+00
   7.178  0.113E+00  0.113E+00
   7.188  0.116E+00  0.116E+00
   7.198  0.117E+00  0.117E+00
   7.208  0.119E+00  0.119E+00
   7.218  0.120E+00  0.120E+00
   7.228  0.121E+00  0.121E+00
   7.238  0.121E+00  0.121E+00
   7.248  0.121E+00  0.121E+00
   7.258  0.122E+00  0.122E+00
   7.268  0.123E+00  0.123E+00
   7.278  0.124E+00  0.124E+00
   7.288  0.126E+00  0.126E+00
   7.298  0.128E+00  0.128E+00
   7.308  0.131E+00  0.131E+00
   7.318  0.135E+00  0.135E+00
   7.328  0.141E+00  0.141E+00
   7.338  0.147E+00  0.147E+00
   7.348  0.154E+00  0.154E+00
   7.358  0.161E+00  0.161E+00
   7.368  0.170E+00  0.170E+00
   7.378  0.179E+00  0.179E+00
   7.388  0.189E+00  0.189E+00
   7.398  0.199E+00  0.199E+00
   7.408  0.208E+00  0.208E+00
   7.418  0.218E+00  0.218E+00
   7.428  0.228E+00  0.228E+00
   7.438  0.237E+00  0.237E+00
   7.448  0.245E+00  0.245E+00
   7.458  0.253E+00  0.253E+00
   7.468  0.259E+00  0.259E+00
   7.478  0.264E+00  0.264E+00
   7.488  0.268E+00  0.268E+00
   7.498  0.271E+00  0.271E+00
   7.508  0.273E+00  0.273E+00
   7.518  0.273E+00  0.273E+00
   7.528  0.273E+00  0.273E+00
   7.538  0.271E+00  0.271E+00
   7.548  0.268E+00  0.268E+00
   7.558  0.263E+00  0.263E+00
   7.568  0.258E+00  0.258E+00
   7.578  0.253E+00  0.253E+00
   7.588  0.246E+00  0.246E+00
   7.598  0.239E+00  0.239E+00
   7.608  0.232E+00  0.232E+00
   7.618  0.224E+00  0.224E+00
   7.628  0.216E+00  0.216E+00
   7.638  0.208E+00  0.208E+00
   7.648  0.200E+00  0.200E+00
   7.658  0.192E+00  0.192E+00
   7.668  0.185E+00  0.185E+00
   7.678  0.177E+00  0.177E+00
   7.688  0.170E+00  0.170E+00
   7.698  0.163E+00  0.163E+00
   7.708  0.157E+00  0.157E+00
   7.718  0.151E+00  0.151E+00
   7.728  0.146E+00  0.146E+00
   7.738  0.141E+00  0.141E+00
   7.748  0.138E+00  0.138E+00
   7.758  0.134E+00  0.134E+00
   7.768  0.131E+00  0.131E+00
   7.778  0.129E+00  0.129E+00
   7.788  0.128E+00  0.128E+00
   7.798  0.126E+00  0.126E+00
   7.808  0.126E+00  0.126E+00
   7.818  0.125E+00  0.125E+00
   7.828  0.125E+00  0.125E+00
   7.838  0.125E+00  0.125E+00
   7.848  0.124E+00  0.124E+00
   7.858  0.124E+00  0.124E+00
   7.868  0.124E+00  0.124E+00
   7.878  0.124E+00  0.124E+00
   7.888  0.124E+00  0.124E+00
   7.898  0.123E+00  0.123E+00
   7.908  0.123E+00  0.123E+00
   7.918  0.123E+00  0.123E+00
   7.928  0.122E+00  0.122E+00
   7.938  0.122E+00  0.122E+00
   7.948  0.122E+00  0.122E+00
   7.958  0.122E+00  0.122E+00
   7.968  0.122E+00  0.122E+00
   7.978  0.123E+00  0.123E+00
   7.988  0.123E+00  0.123E+00
   7.998  0.124E+00  0.124E+00
   8.008  0.125E+00  0.125E+00
   8.018  0.126E+00  0.126E+00
   8.028  0.126E+00  0.126E+00
   8.038  0.127E+00  0.127E+00
   8.048  0.127E+00  0.127E+00
   8.058  0.127E+00  0.127E+00
   8.068  0.126E+00  0.126E+00
   8.078  0.125E+00  0.125E+00
   8.088  0.124E+00  0.124E+00
   8.098  0.123E+00  0.123E+00
   8.108  0.121E+00  0.121E+00
   8.118  0.119E+00  0.119E+00
   8.128  0.117E+00  0.117E+00
   8.138  0.115E+00  0.115E+00
   8.148  0.112E+00  0.112E+00
   8.158  0.110E+00  0.110E+00
   8.168  0.108E+00  0.108E+00
   8.178  0.107E+00  0.107E+00
   8.188  0.105E+00  0.105E+00
   8.198  0.104E+00  0.104E+00
   8.208  0.103E+00  0.103E+00
   8.218  0.103E+00  0.103E+00
   8.228  0.102E+00  0.102E+00
   8.238  0.102E+00  0.102E+00
   8.248  0.102E+00  0.102E+00
   8.258  0.102E+00  0.102E+00
   8.268  0.101E+00  0.101E+00
   8.278  0.100E+00  0.100E+00
   8.288  0.992E-01  0.992E-01
   8.298  0.978E-01  0.978E-01
   8.308  0.960E-01  0.960E-01
   8.318  0.938E-01  0.938E-01
   8.328  0.913E-01  0.913E-01
   8.338  0.884E-01  0.884E-01
   8.348  0.854E-01  0.854E-01
   8.358  0.822E-01  0.822E-01
   8.368  0.789E-01  0.789E-01
   8.378  0.757E-01  0.757E-01
   8.388  0.727E-01  0.727E-01
   8.398  0.699E-01  0.699E-01
   8.408  0.675E-01  0.675E-01
   8.418  0.655E-01  0.655E-01
   8.428  0.639E-01  0.639E-01
   8.438  0.628E-01  0.628E-01
   8.448  0.622E-01  0.622E-01
   8.458  0.621E-01  0.621E-01
   8.468  0.624E-01  0.624E-01
   8.478  0.632E-01  0.632E-01
   8.488  0.644E-01  0.644E-01
   8.498  0.659E-01  0.659E-01
   8.508  0.676E-01  0.676E-01
   8.518  0.696E-01  0.696E-01
   8.528  0.716E-01  0.716E-01
   8.538  0.738E-01  0.738E-01
   8.548  0.759E-01  0.759E-01
   8.558  0.780E-01  0.780E-01
   8.568  0.801E-01  0.801E-01
   8.578  0.820E-01  0.820E-01
   8.588  0.837E-01  0.837E-01
   8.598  0.853E-01  0.853E-01
   8.608  0.867E-01  0.867E-01
   8.618  0.880E-01  0.880E-01
   8.628  0.891E-01  0.891E-01
   8.638  0.900E-01  0.900E-01
   8.648  0.909E-01  0.909E-01
   8.658  0.917E-01  0.917E-01
   8.668  0.925E-01  0.925E-01
   8.678  0.934E-01  0.934E-01
   8.688  0.943E-01  0.943E-01
   8.698  0.953E-01  0.953E-01
   8.708  0.964E-01  0.964E-01
   8.718  0.978E-01  0.978E-01
   8.728  0.993E-01  0.993E-01
   8.738  0.101E+00  0.101E+00
   8.748  0.103E+00  0.103E+00
   8.758  0.105E+00  0.105E+00
   8.768  0.108E+00  0.108E+00
   8.778  0.111E+00  0.111E+00
   8.788  0.114E+00  0.114E+00
   8.798  0.117E+00  0.117E+00
   8.808  0.120E+00  0.120E+00
   8.818  0.123E+00  0.123E+00
   8.828  0.127E+00  0.127E+00
   8.838  0.130E+00  0.130E+00
   8.848  0.134E+00  0.134E+00
   8.858  0.137E+00  0.137E+00
   8.868  0.140E+00  0.140E+00
   8.878  0.143E+00  0.143E+00
   8.888  0.146E+00  0.146E+00
   8.898  0.148E+00  0.148E+00
   8.908  0.150E+00  0.150E+00
   8.918  0.152E+00  0.152E+00
   8.928  0.153E+00  0.153E+00
   8.938  0.154E+00  0.154E+00
   8.948  0.154E+00  0.154E+00
   8.958  0.154E+00  0.154E+00
   8.968  0.154E+00  0.154E+00
   8.978  0.154E+00  0.154E+00
   8.988  0.153E+00  0.153E+00
   8.998  0.152E+00  0.152E+00
   9.008  0.151E+00  0.151E+00
   9.018  0.151E+00  0.151E+00
   9.028  0.150E+00  0.150E+00
   9.038  0.151E+00  0.151E+00
   9.048  0.152E+00  0.152E+00
   9.058  0.153E+00  0.153E+00
   9.068  0.156E+00  0.156E+00
   9.078  0.159E+00  0.159E+00
   9.088  0.163E+00  0.163E+00
   9.098  0.169E+00  0.169E+00
   9.108  0.175E+00  0.175E+00
   9.118  0.181E+00  0.181E+00
   9.128  0.188E+00  0.188E+00
   9.138  0.195E+00  0.195E+00
   9.148  0.202E+00  0.202E+00
   9.158  0.209E+00  0.209E+00
   9.168  0.215E+00  0.215E+00
   9.178  0.221E+00  0.221E+00
   9.188  0.226E+00  0.226E+00
   9.198  0.229E+00  0.229E+00
   9.208  0.231E+00  0.231E+00
   9.218  0.233E+00  0.233E+00
   9.228  0.233E+00  0.233E+00
   9.238  0.232E+00  0.232E+00
   9.248  0.231E+00  0.231E+00
   9.258  0.229E+00  0.229E+00
   9.268  0.227E+00  0.227E+00
   9.278  0.225E+00  0.225E+00
   9.288  0.223E+00  0.223E+00
   9.298  0.222E+00  0.222E+00
   9.308  0.222E+00  0.222E+00
   9.318  0.223E+00  0.223E+00
   9.328  0.225E+00  0.225E+00
   9.338  0.229E+00  0.229E+00
   9.348  0.233E+00  0.233E+00
   9.358  0.238E+00  0.238E+00
   9.368  0.245E+00  0.245E+00
   9.378  0.251E+00  0.251E+00
   9.388  0.258E+00  0.258E+00
   9.398  0.265E+00  0.265E+00
   9.408  0.271E+00  0.271E+00
   9.418  0.277E+00  0.277E+00
   9.428  0.281E+00  0.281E+00
   9.438  0.285E+00  0.285E+00
   9.448  0.286E+00  0.286E+00
   9.458  0.286E+00  0.286E+00
   9.468  0.283E+00  0.283E+00
   9.478  0.279E+00  0.279E+00
   9.488  0.273E+00  0.273E+00
   9.498  0.265E+00  0.265E+00
   9.508  0.256E+00  0.256E+00
   9.518  0.244E+00  0.244E+00
   9.528  0.232E+00  0.232E+00
   9.538  0.218E+00  0.218E+00
   9.548  0.204E+00  0.204E+00
   9.558  0.189E+00  0.189E+00
   9.568  0.174E+00  0.174E+00
   9.578  0.158E+00  0.158E+00
   9.588  0.144E+00  0.144E+00
   9.598  0.129E+00  0.129E+00
   9.608  0.115E+00  0.115E+00
   9.618  0.102E+00  0.102E+00
   9.628  0.903E-01  0.903E-01
   9.638  0.793E-01  0.793E-01
   9.648  0.693E-01  0.693E-01
   9.658  0.605E-01  0.605E-01
   9.668  0.529E-01  0.529E-01
   9.678  0.463E-01  0.463E-01
   9.688  0.409E-01  0.409E-01
   9.698  0.365E-01  0.365E-01
   9.708  0.331E-01  0.331E-01
   9.718  0.307E-01  0.307E-01
   9.728  0.292E-01  0.292E-01
   9.738  0.286E-01  0.286E-01
   9.748  0.288E-01  0.288E-01
   9.758  0.297E-01  0.297E-01
   9.768  0.314E-01  0.314E-01
   9.778  0.339E-01  0.339E-01
   9.788  0.370E-01  0.370E-01
   9.798  0.408E-01  0.408E-01
   9.808  0.453E-01  0.453E-01
   9.818  0.503E-01  0.503E-01
   9.828  0.560E-01  0.560E-01
   9.838  0.621E-01  0.621E-01
   9.848  0.688E-01  0.688E-01
   9.858  0.759E-01  0.759E-01
   9.868  0.833E-01  0.833E-01
   9.878  0.910E-01  0.910E-01
   9.888  0.988E-01  0.988E-01
   9.898  0.107E+00  0.107E+00
   9.908  0.115E+00  0.115E+00
   9.918  0.122E+00  0.122E+00
   9.928  0.130E+00  0.130E+00
   9.938  0.137E+00  0.137E+00
   9.948  0.143E+00  0.143E+00
   9.958  0.149E+00  0.149E+00
   9.968  0.155E+00  0.155E+00
   9.978  0.159E+00  0.159E+00
   9.988  0.163E+00  0.163E+00
   9.998  0.165E+00  0.165E+00
  10.008  0.167E+00  0.167E+00
  10.018  0.167E+00  0.167E+00
  10.028  0.167E+00  0.167E+00
  10.038  0.165E+00  0.165E+00
  10.048  0.163E+00  0.163E+00
  10.058  0.159E+00  0.159E+00
  10.068  0.155E+00  0.155E+00
  10.078  0.150E+00  0.150E+00
  10.088  0.145E+00  0.145E+00
  10.098  0.138E+00  0.138E+00
  10.108  0.132E+00  0.132E+00
  10.118  0.126E+00  0.126E+00
  10.128  0.120E+00  0.120E+00
  10.138  0.114E+00  0.114E+00
  10.148  0.109E+00  0.109E+00
  10.158  0.104E+00  0.104E+00
  10.168  0.101E+00  0.101E+00
  10.178  0.978E-01  0.978E-01
  10.188  0.961E-01  0.961E-01
  10.198  0.956E-01  0.956E-01
  10.208  0.961E-01  0.961E-01
  10.218  0.977E-01  0.977E-01
  10.228  0.100E+00  0.100E+00
  10.238  0.103E+00  0.103E+00
  10.248  0.107E+00  0.107E+00
  10.258  0.112E+00  0.112E+00
  10.268  0.116E+00  0.116E+00
  10.278  0.120E+00  0.120E+00
  10.288  0.125E+00  0.125E+00
  10.298  0.128E+00  0.128E+00
  10.308  0.131E+00  0.131E+00
  10.318  0.133E+00  0.133E+00
  10.328  0.135E+00  0.135E+00
  10.338  0.135E+00  0.135E+00
  10.348  0.134E+00  0.134E+00
  10.358  0.132E+00  0.132E+00
  10.368  0.128E+00  0.128E+00
  10.378  0.124E+00  0.124E+00
  10.388  0.119E+00  0.119E+00
  10.398  0.113E+00  0.113E+00
  10.408  0.107E+00  0.107E+00
  10.418  0.100E+00  0.100E+00
  10.428  0.931E-01  0.931E-01
  10.438  0.862E-01  0.862E-01
  10.448  0.794E-01  0.794E-01
  10.458  0.730E-01  0.730E-01
  10.468  0.670E-01  0.670E-01
  10.478  0.616E-01  0.616E-01
  10.488  0.569E-01  0.569E-01
  10.498  0.529E-01  0.529E-01
  10.508  0.497E-01  0.497E-01
  10.518  0.472E-01  0.472E-01
  10.528  0.455E-01  0.455E-01
  10.538  0.446E-01  0.446E-01
  10.548  0.443E-01  0.443E-01
  10.558  0.446E-01  0.446E-01
  10.568  0.455E-01  0.455E-01
  10.578  0.468E-01  0.468E-01
  10.588  0.485E-01  0.485E-01
  10.598  0.506E-01  0.506E-01
  10.608  0.528E-01  0.528E-01
  10.618  0.552E-01  0.552E-01
  10.628  0.577E-01  0.577E-01
  10.638  0.603E-01  0.603E-01
  10.648  0.628E-01  0.628E-01
  10.658  0.653E-01  0.653E-01
  10.668  0.677E-01  0.677E-01
  10.678  0.699E-01  0.699E-01
  10.688  0.720E-01  0.720E-01
  10.698  0.738E-01  0.738E-01
  10.708  0.755E-01  0.755E-01
  10.718  0.769E-01  0.769E-01
  10.728  0.780E-01  0.780E-01
  10.738  0.789E-01  0.789E-01
  10.748  0.794E-01  0.794E-01
  10.758  0.795E-01  0.795E-01
  10.768  0.794E-01  0.794E-01
  10.778  0.788E-01  0.788E-01
  10.788  0.780E-01  0.780E-01
  10.798  0.767E-01  0.767E-01
  10.808  0.752E-01  0.752E-01
  10.818  0.734E-01  0.734E-01
  10.828  0.712E-01  0.712E-01
  10.838  0.689E-01  0.689E-01
  10.848  0.664E-01  0.664E-01
  10.858  0.638E-01  0.638E-01
  10.868  0.610E-01  0.610E-01
  10.878  0.582E-01  0.582E-01
  10.888  0.554E-01  0.554E-01
  10.898  0.526E-01  0.526E-01
  10.908  0.499E-01  0.499E-01
  10.918  0.472E-01  0.472E-01
  10.928  0.446E-01  0.446E-01
  10.938  0.421E-01  0.421E-01
  10.948  0.396E-01  0.396E-01
  10.958  0.373E-01  0.373E-01
  10.968  0.350E-01  0.350E-01
  10.978  0.328E-01  0.328E-01
  10.988  0.307E-01  0.307E-01
  10.998  0.287E-01  0.287E-01
  11.008  0.268E-01  0.268E-01
  11.018  0.251E-01  0.251E-01
  11.028  0.235E-01  0.235E-01
  11.038  0.220E-01  0.220E-01
  11.048  0.208E-01  0.208E-01
  11.058  0.198E-01  0.198E-01
  11.068  0.191E-01  0.191E-01
  11.078  0.188E-01  0.188E-01
  11.088  0.188E-01  0.188E-01
  11.098  0.191E-01  0.191E-01
  11.108  0.199E-01  0.199E-01
  11.118  0.212E-01  0.212E-01
  11.128  0.229E-01  0.229E-01
  11.138  0.252E-01  0.252E-01
  11.148  0.279E-01  0.279E-01
  11.158  0.311E-01  0.311E-01
  11.168  0.348E-01  0.348E-01
  11.178  0.389E-01  0.389E-01
  11.188  0.434E-01  0.434E-01
  11.198  0.483E-01  0.483E-01
  11.208  0.534E-01  0.534E-01
  11.218  0.588E-01  0.588E-01
  11.228  0.642E-01  0.642E-01
  11.238  0.696E-01  0.696E-01
  11.248  0.750E-01  0.750E-01
  11.258  0.801E-01  0.801E-01
  11.268  0.848E-01  0.848E-01
  11.278  0.891E-01  0.891E-01
  11.288  0.929E-01  0.929E-01
  11.298  0.960E-01  0.960E-01
  11.308  0.985E-01  0.985E-01
  11.318  0.100E+00  0.100E+00
  11.328  0.101E+00  0.101E+00
  11.338  0.101E+00  0.101E+00
  11.348  0.100E+00  0.100E+00
  11.358  0.990E-01  0.990E-01
  11.368  0.970E-01  0.970E-01
  11.378  0.945E-01  0.945E-01
  11.388  0.916E-01  0.916E-01
  11.398  0.884E-01  0.884E-01
  11.408  0.851E-01  0.851E-01
  11.418  0.819E-01  0.819E-01
  11.428  0.787E-01  0.787E-01
  11.438  0.758E-01  0.758E-01
  11.448  0.733E-01  0.733E-01
  11.458  0.713E-01  0.713E-01
  11.468  0.697E-01  0.697E-01
  11.478  0.687E-01  0.687E-01
  11.488  0.682E-01  0.682E-01
  11.498  0.683E-01  0.683E-01
  11.508  0.688E-01  0.688E-01
  11.518  0.697E-01  0.697E-01
  11.528  0.710E-01  0.710E-01
  11.538  0.724E-01  0.724E-01
  11.548  0.741E-01  0.741E-01
  11.558  0.758E-01  0.758E-01
  11.568  0.774E-01  0.774E-01
  11.578  0.790E-01  0.790E-01
  11.588  0.804E-01  0.804E-01
  11.598  0.816E-01  0.816E-01
  11.608  0.825E-01  0.825E-01
  11.618  0.833E-01  0.833E-01
  11.628  0.838E-01  0.838E-01
  11.638  0.841E-01  0.841E-01
  11.648  0.843E-01  0.843E-01
  11.658  0.843E-01  0.843E-01
  11.668  0.843E-01  0.843E-01
  11.678  0.843E-01  0.843E-01
  11.688  0.843E-01  0.843E-01
  11.698  0.844E-01  0.844E-01
  11.708  0.845E-01  0.845E-01
  11.718  0.847E-01  0.847E-01
  11.728  0.851E-01  0.851E-01
  11.738  0.855E-01  0.855E-01
  11.748  0.860E-01  0.860E-01
  11.758  0.864E-01  0.864E-01
  11.768  0.868E-01  0.868E-01
  11.778  0.871E-01  0.871E-01
  11.788  0.872E-01  0.872E-01
  11.798  0.871E-01  0.871E-01
  11.808  0.867E-01  0.867E-01
  11.818  0.859E-01  0.859E-01
  11.828  0.848E-01  0.848E-01
  11.838  0.833E-01  0.833E-01
  11.848  0.815E-01  0.815E-01
  11.858  0.792E-01  0.792E-01
  11.868  0.767E-01  0.767E-01
  11.878  0.738E-01  0.738E-01
  11.888  0.708E-01  0.708E-01
  11.898  0.675E-01  0.675E-01
  11.908  0.642E-01  0.642E-01
  11.918  0.609E-01  0.609E-01
  11.928  0.576E-01  0.576E-01
  11.938  0.545E-01  0.545E-01
  11.948  0.516E-01  0.516E-01
  11.958  0.489E-01  0.489E-01
  11.968  0.465E-01  0.465E-01
  11.978  0.445E-01  0.445E-01
  11.988  0.428E-01  0.428E-01
  11.998  0.415E-01  0.415E-01
  12.008  0.406E-01  0.406E-01
  12.018  0.401E-01  0.401E-01
  12.028  0.400E-01  0.400E-01
  12.038  0.402E-01  0.402E-01
  12.048  0.408E-01  0.408E-01
  12.058  0.418E-01  0.418E-01
  12.068  0.431E-01  0.431E-01
  12.078  0.446E-01  0.446E-01
  12.088  0.464E-01  0.464E-01
  12.098  0.484E-01  0.484E-01
  12.108  0.505E-01  0.505E-01
  12.118  0.527E-01  0.527E-01
  12.128  0.550E-01  0.550E-01
  12.138  0.572E-01  0.572E-01
  12.148  0.594E-01  0.594E-01
  12.158  0.615E-01  0.615E-01
  12.168  0.634E-01  0.634E-01
  12.178  0.652E-01  0.652E-01
  12.188  0.667E-01  0.667E-01
  12.198  0.679E-01  0.679E-01
  12.208  0.689E-01  0.689E-01
  12.218  0.696E-01  0.696E-01
  12.228  0.700E-01  0.700E-01
  12.238  0.700E-01  0.700E-01
  12.248  0.698E-01  0.698E-01
  12.258  0.693E-01  0.693E-01
  12.268  0.685E-01  0.685E-01
  12.278  0.675E-01  0.675E-01
  12.288  0.662E-01  0.662E-01
  12.298  0.647E-01  0.647E-01
  12.308  0.630E-01  0.630E-01
  12.318  0.611E-01  0.611E-01
  12.328  0.591E-01  0.591E-01
  12.338  0.570E-01  0.570E-01
  12.348  0.548E-01  0.548E-01
  12.358  0.527E-01  0.527E-01
  12.368  0.506E-01  0.506E-01
  12.378  0.485E-01  0.485E-01
  12.388  0.466E-01  0.466E-01
  12.398  0.448E-01  0.448E-01
  12.408  0.433E-01  0.433E-01
  12.418  0.419E-01  0.419E-01
  12.428  0.409E-01  0.409E-01
  12.438  0.401E-01  0.401E-01
  12.448  0.396E-01  0.396E-01
  12.458  0.393E-01  0.393E-01
  12.468  0.394E-01  0.394E-01
  12.478  0.397E-01  0.397E-01
  12.488  0.402E-01  0.402E-01
  12.498  0.409E-01  0.409E-01
  12.508  0.418E-01  0.418E-01
  12.518  0.428E-01  0.428E-01
  12.528  0.438E-01  0.438E-01
  12.538  0.449E-01  0.449E-01
  12.548  0.460E-01  0.460E-01
  12.558  0.470E-01  0.470E-01
  12.568  0.480E-01  0.480E-01
  12.578  0.488E-01  0.488E-01
  12.588  0.494E-01  0.494E-01
  12.598  0.499E-01  0.499E-01
  12.608  0.503E-01  0.503E-01
  12.618  0.504E-01  0.504E-01
  12.628  0.504E-01  0.504E-01
  12.638  0.501E-01  0.501E-01
  12.648  0.497E-01  0.497E-01
  12.658  0.492E-01  0.492E-01
  12.668  0.485E-01  0.485E-01
  12.678  0.476E-01  0.476E-01
  12.688  0.466E-01  0.466E-01
  12.698  0.455E-01  0.455E-01
  12.708  0.443E-01  0.443E-01
  12.718  0.431E-01  0.431E-01
  12.728  0.419E-01  0.419E-01
  12.738  0.406E-01  0.406E-01
  12.748  0.394E-01  0.394E-01
  12.758  0.383E-01  0.383E-01
  12.768  0.373E-01  0.373E-01
  12.778  0.364E-01  0.364E-01
  12.788  0.358E-01  0.358E-01
  12.798  0.354E-01  0.354E-01
  12.808  0.353E-01  0.353E-01
  12.818  0.356E-01  0.356E-01
  12.828  0.361E-01  0.361E-01
  12.838  0.371E-01  0.371E-01
  12.848  0.383E-01  0.383E-01
  12.858  0.399E-01  0.399E-01
  12.868  0.418E-01  0.418E-01
  12.878  0.440E-01  0.440E-01
  12.888  0.464E-01  0.464E-01
  12.898  0.490E-01  0.490E-01
  12.908  0.518E-01  0.518E-01
  12.918  0.546E-01  0.546E-01
  12.928  0.573E-01  0.573E-01
  12.938  0.601E-01  0.601E-01
  12.948  0.627E-01  0.627E-01
  12.958  0.651E-01  0.651E-01
  12.968  0.673E-01  0.673E-01
  12.978  0.692E-01  0.692E-01
  12.988  0.709E-01  0.709E-01
  12.998  0.723E-01  0.723E-01
  13.008  0.734E-01  0.734E-01
  13.018  0.743E-01  0.743E-01
  13.028  0.749E-01  0.749E-01
  13.038  0.752E-01  0.752E-01
  13.048  0.753E-01  0.753E-01
  13.058  0.753E-01  0.753E-01
  13.068  0.751E-01  0.751E-01
  13.078  0.748E-01  0.748E-01
  13.088  0.745E-01  0.745E-01
  13.098  0.741E-01  0.741E-01
  13.108  0.736E-01  0.736E-01
  13.118  0.731E-01  0.731E-01
  13.128  0.726E-01  0.726E-01
  13.138  0.721E-01  0.721E-01
  13.148  0.715E-01  0.715E-01
  13.158  0.708E-01  0.708E-01
  13.168  0.701E-01  0.701E-01
  13.178  0.692E-01  0.692E-01
  13.188  0.682E-01  0.682E-01
  13.198  0.670E-01  0.670E-01
  13.208  0.656E-01  0.656E-01
  13.218  0.640E-01  0.640E-01
  13.228  0.622E-01  0.622E-01
  13.238  0.601E-01  0.601E-01
  13.248  0.579E-01  0.579E-01
  13.258  0.556E-01  0.556E-01
  13.268  0.531E-01  0.531E-01
  13.278  0.505E-01  0.505E-01
  13.288  0.479E-01  0.479E-01
  13.298  0.454E-01  0.454E-01
  13.308  0.430E-01  0.430E-01
  13.318  0.408E-01  0.408E-01
  13.328  0.388E-01  0.388E-01
  13.338  0.371E-01  0.371E-01
  13.348  0.358E-01  0.358E-01
  13.358  0.349E-01  0.349E-01
  13.368  0.344E-01  0.344E-01
  13.378  0.343E-01  0.343E-01
  13.388  0.347E-01  0.347E-01
  13.398  0.355E-01  0.355E-01
  13.408  0.366E-01  0.366E-01
  13.418  0.381E-01  0.381E-01
  13.428  0.399E-01  0.399E-01
  13.438  0.419E-01  0.419E-01
  13.448  0.441E-01  0.441E-01
  13.458  0.464E-01  0.464E-01
  13.468  0.486E-01  0.486E-01
  13.478  0.509E-01  0.509E-01
  13.488  0.530E-01  0.530E-01
  13.498  0.549E-01  0.549E-01
  13.508  0.567E-01  0.567E-01
  13.518  0.581E-01  0.581E-01
  13.528  0.593E-01  0.593E-01
  13.538  0.602E-01  0.602E-01
  13.548  0.608E-01  0.608E-01
  13.558  0.611E-01  0.611E-01
  13.568  0.611E-01  0.611E-01
  13.578  0.609E-01  0.609E-01
  13.588  0.604E-01  0.604E-01
  13.598  0.598E-01  0.598E-01
  13.608  0.590E-01  0.590E-01
  13.618  0.581E-01  0.581E-01
  13.628  0.571E-01  0.571E-01
  13.638  0.560E-01  0.560E-01
  13.648  0.548E-01  0.548E-01
  13.658  0.536E-01  0.536E-01
  13.668  0.524E-01  0.524E-01
  13.678  0.512E-01  0.512E-01
  13.688  0.499E-01  0.499E-01
  13.698  0.486E-01  0.486E-01
  13.708  0.473E-01  0.473E-01
  13.718  0.460E-01  0.460E-01
  13.728  0.446E-01  0.446E-01
  13.738  0.432E-01  0.432E-01
  13.748  0.418E-01  0.418E-01
  13.758  0.404E-01  0.404E-01
  13.768  0.390E-01  0.390E-01
  13.778  0.377E-01  0.377E-01
  13.788  0.364E-01  0.364E-01
  13.798  0.352E-01  0.352E-01
  13.808  0.342E-01  0.342E-01
  13.818  0.333E-01  0.333E-01
  13.828  0.325E-01  0.325E-01
  13.838  0.319E-01  0.319E-01
  13.848  0.315E-01  0.315E-01
  13.858  0.312E-01  0.312E-01
  13.868  0.312E-01  0.312E-01
  13.878  0.313E-01  0.313E-01
  13.888  0.315E-01  0.315E-01
  13.898  0.319E-01  0.319E-01
  13.908  0.323E-01  0.323E-01
  13.918  0.329E-01  0.329E-01
  13.928  0.335E-01  0.335E-01
  13.938  0.340E-01  0.340E-01
  13.948  0.346E-01  0.346E-01
  13.958  0.352E-01  0.352E-01
  13.968  0.356E-01  0.356E-01
  13.978  0.360E-01  0.360E-01
  13.988  0.364E-01  0.364E-01
  13.998  0.366E-01  0.366E-01
  14.008  0.368E-01  0.368E-01
  14.018  0.368E-01  0.368E-01
  14.028  0.368E-01  0.368E-01
  14.038  0.366E-01  0.366E-01
  14.048  0.364E-01  0.364E-01
  14.058  0.361E-01  0.361E-01
  14.068  0.356E-01  0.356E-01
  14.078  0.351E-01  0.351E-01
  14.088  0.344E-01  0.344E-01
  14.098  0.337E-01  0.337E-01
  14.108  0.329E-01  0.329E-01
  14.118  0.319E-01  0.319E-01
  14.128  0.309E-01  0.309E-01
  14.138  0.298E-01  0.298E-01
  14.148  0.286E-01  0.286E-01
  14.158  0.274E-01  0.274E-01
  14.168  0.262E-01  0.262E-01
  14.178  0.251E-01  0.251E-01
  14.188  0.239E-01  0.239E-01
  14.198  0.229E-01  0.229E-01
  14.208  0.220E-01  0.220E-01
  14.218  0.213E-01  0.213E-01
  14.228  0.208E-01  0.208E-01
  14.238  0.206E-01  0.206E-01
  14.248  0.206E-01  0.206E-01
  14.258  0.208E-01  0.208E-01
  14.268  0.214E-01  0.214E-01
  14.278  0.222E-01  0.222E-01
  14.288  0.233E-01  0.233E-01
  14.298  0.247E-01  0.247E-01
  14.308  0.262E-01  0.262E-01
  14.318  0.279E-01  0.279E-01
  14.328  0.298E-01  0.298E-01
  14.338  0.316E-01  0.316E-01
  14.348  0.335E-01  0.335E-01
  14.358  0.354E-01  0.354E-01
  14.368  0.371E-01  0.371E-01
  14.378  0.387E-01  0.387E-01
  14.388  0.401E-01  0.401E-01
  14.398  0.413E-01  0.413E-01
  14.408  0.422E-01  0.422E-01
  14.418  0.428E-01  0.428E-01
  14.428  0.431E-01  0.431E-01
  14.438  0.431E-01  0.431E-01
  14.448  0.428E-01  0.428E-01
  14.458  0.422E-01  0.422E-01
  14.468  0.414E-01  0.414E-01
  14.478  0.404E-01  0.404E-01
  14.488  0.391E-01  0.391E-01
  14.498  0.377E-01  0.377E-01
  14.508  0.362E-01  0.362E-01
  14.518  0.346E-01  0.346E-01
  14.528  0.328E-01  0.328E-01
  14.538  0.311E-01  0.311E-01
  14.548  0.293E-01  0.293E-01
  14.558  0.275E-01  0.275E-01
  14.568  0.257E-01  0.257E-01
  14.578  0.240E-01  0.240E-01
  14.588  0.224E-01  0.224E-01
  14.598  0.208E-01  0.208E-01
  14.608  0.193E-01  0.193E-01
  14.618  0.179E-01  0.179E-01
  14.628  0.166E-01  0.166E-01
  14.638  0.154E-01  0.154E-01
  14.648  0.143E-01  0.143E-01
  14.658  0.133E-01  0.133E-01
  14.668  0.125E-01  0.125E-01
  14.678  0.118E-01  0.118E-01
  14.688  0.112E-01  0.112E-01
  14.698  0.108E-01  0.108E-01
  14.708  0.104E-01  0.104E-01
  14.718  0.102E-01  0.102E-01
  14.728  0.100E-01  0.100E-01
  14.738  0.998E-02  0.998E-02
  14.748  0.100E-01  0.100E-01
  14.758  0.102E-01  0.102E-01
  14.768  0.105E-01  0.105E-01
  14.778  0.108E-01  0.108E-01
  14.788  0.113E-01  0.113E-01
  14.798  0.118E-01  0.118E-01
  14.808  0.124E-01  0.124E-01
  14.818  0.131E-01  0.131E-01
  14.828  0.139E-01  0.139E-01
  14.838  0.147E-01  0.147E-01
  14.848  0.156E-01  0.156E-01
  14.858  0.165E-01  0.165E-01
  14.868  0.174E-01  0.174E-01
  14.878  0.183E-01  0.183E-01
  14.888  0.192E-01  0.192E-01
  14.898  0.200E-01  0.200E-01
  14.908  0.207E-01  0.207E-01
  14.918  0.213E-01  0.213E-01
  14.928  0.217E-01  0.217E-01
  14.938  0.220E-01  0.220E-01
  14.948  0.221E-01  0.221E-01
  14.958  0.221E-01  0.221E-01
  14.968  0.219E-01  0.219E-01
  14.978  0.215E-01  0.215E-01
  14.988  0.210E-01  0.210E-01
  14.998  0.204E-01  0.204E-01
  15.008  0.198E-01  0.198E-01
  15.018  0.190E-01  0.190E-01
  15.028  0.182E-01  0.182E-01
  15.038  0.175E-01  0.175E-01
  15.048  0.167E-01  0.167E-01
  15.058  0.160E-01  0.160E-01
  15.068  0.154E-01  0.154E-01
  15.078  0.149E-01  0.149E-01
  15.088  0.144E-01  0.144E-01
  15.098  0.141E-01  0.141E-01
  15.108  0.139E-01  0.139E-01
  15.118  0.139E-01  0.139E-01
  15.128  0.139E-01  0.139E-01
  15.138  0.140E-01  0.140E-01
  15.148  0.143E-01  0.143E-01
  15.158  0.146E-01  0.146E-01
  15.168  0.151E-01  0.151E-01
  15.178  0.156E-01  0.156E-01
  15.188  0.162E-01  0.162E-01
  15.198  0.169E-01  0.169E-01
  15.208  0.177E-01  0.177E-01
  15.218  0.185E-01  0.185E-01
  15.228  0.194E-01  0.194E-01
  15.238  0.203E-01  0.203E-01
  15.248  0.213E-01  0.213E-01
  15.258  0.223E-01  0.223E-01
  15.268  0.234E-01  0.234E-01
  15.278  0.244E-01  0.244E-01
  15.288  0.254E-01  0.254E-01
  15.298  0.264E-01  0.264E-01
  15.308  0.273E-01  0.273E-01
  15.318  0.281E-01  0.281E-01
  15.328  0.288E-01  0.288E-01
  15.338  0.293E-01  0.293E-01
  15.348  0.297E-01  0.297E-01
  15.358  0.300E-01  0.300E-01
  15.368  0.301E-01  0.301E-01
  15.378  0.300E-01  0.300E-01
  15.388  0.297E-01  0.297E-01
  15.398  0.293E-01  0.293E-01
  15.408  0.288E-01  0.288E-01
  15.418  0.283E-01  0.283E-01
  15.428  0.276E-01  0.276E-01
  15.438  0.269E-01  0.269E-01
  15.448  0.263E-01  0.263E-01
  15.458  0.257E-01  0.257E-01
  15.468  0.251E-01  0.251E-01
  15.478  0.246E-01  0.246E-01
  15.488  0.242E-01  0.242E-01
  15.498  0.240E-01  0.240E-01
  15.508  0.238E-01  0.238E-01
  15.518  0.237E-01  0.237E-01
  15.528  0.238E-01  0.238E-01
  15.538  0.239E-01  0.239E-01
  15.548  0.241E-01  0.241E-01
  15.558  0.243E-01  0.243E-01
  15.568  0.246E-01  0.246E-01
  15.578  0.248E-01  0.248E-01
  15.588  0.251E-01  0.251E-01
  15.598  0.253E-01  0.253E-01
  15.608  0.255E-01  0.255E-01
  15.618  0.256E-01  0.256E-01
  15.628  0.257E-01  0.257E-01
  15.638  0.257E-01  0.257E-01
  15.648  0.257E-01  0.257E-01
  15.658  0.256E-01  0.256E-01
  15.668  0.254E-01  0.254E-01
  15.678  0.251E-01  0.251E-01
  15.688  0.248E-01  0.248E-01
  15.698  0.243E-01  0.243E-01
  15.708  0.238E-01  0.238E-01
  15.718  0.232E-01  0.232E-01
  15.728  0.225E-01  0.225E-01
  15.738  0.217E-01  0.217E-01
  15.748  0.208E-01  0.208E-01
  15.758  0.198E-01  0.198E-01
  15.768  0.188E-01  0.188E-01
  15.778  0.177E-01  0.177E-01
  15.788  0.165E-01  0.165E-01
  15.798  0.153E-01  0.153E-01
  15.808  0.141E-01  0.141E-01
  15.818  0.130E-01  0.130E-01
  15.828  0.118E-01  0.118E-01
  15.838  0.106E-01  0.106E-01
  15.848  0.953E-02  0.953E-02
  15.858  0.850E-02  0.850E-02
  15.868  0.754E-02  0.754E-02
  15.878  0.666E-02  0.666E-02
  15.888  0.587E-02  0.587E-02
  15.898  0.517E-02  0.517E-02
  15.908  0.457E-02  0.457E-02
  15.918  0.407E-02  0.407E-02
  15.928  0.366E-02  0.366E-02
  15.938  0.335E-02  0.335E-02
  15.948  0.313E-02  0.313E-02
  15.958  0.301E-02  0.301E-02
  15.968  0.298E-02  0.298E-02
  15.978  0.305E-02  0.305E-02
  15.988  0.320E-02  0.320E-02
  15.998  0.344E-02  0.344E-02
  16.008  0.377E-02  0.377E-02
  16.018  0.418E-02  0.418E-02
  16.028  0.468E-02  0.468E-02
  16.038  0.526E-02  0.526E-02
  16.048  0.591E-02  0.591E-02
  16.058  0.663E-02  0.663E-02
  16.068  0.742E-02  0.742E-02
  16.078  0.825E-02  0.825E-02
  16.088  0.914E-02  0.914E-02
  16.098  0.101E-01  0.101E-01
  16.108  0.110E-01  0.110E-01
  16.118  0.120E-01  0.120E-01
  16.128  0.129E-01  0.129E-01
  16.138  0.139E-01  0.139E-01
  16.148  0.149E-01  0.149E-01
  16.158  0.158E-01  0.158E-01
  16.168  0.167E-01  0.167E-01
  16.178  0.176E-01  0.176E-01
  16.188  0.185E-01  0.185E-01
  16.198  0.194E-01  0.194E-01
  16.208  0.202E-01  0.202E-01
  16.218  0.209E-01  0.209E-01
  16.228  0.216E-01  0.216E-01
  16.238  0.223E-01  0.223E-01
  16.248  0.229E-01  0.229E-01
  16.258  0.234E-01  0.234E-01
  16.268  0.238E-01  0.238E-01
  16.278  0.241E-01  0.241E-01
  16.288  0.243E-01  0.243E-01
  16.298  0.244E-01  0.244E-01
  16.308  0.243E-01  0.243E-01
  16.318  0.241E-01  0.241E-01
  16.328  0.237E-01  0.237E-01
  16.338  0.232E-01  0.232E-01
  16.348  0.226E-01  0.226E-01
  16.358  0.219E-01  0.219E-01
  16.368  0.210E-01  0.210E-01
  16.378  0.201E-01  0.201E-01
  16.388  0.191E-01  0.191E-01
  16.398  0.181E-01  0.181E-01
  16.408  0.171E-01  0.171E-01
  16.418  0.161E-01  0.161E-01
  16.428  0.152E-01  0.152E-01
  16.438  0.144E-01  0.144E-01
  16.448  0.137E-01  0.137E-01
  16.458  0.131E-01  0.131E-01
  16.468  0.127E-01  0.127E-01
  16.478  0.125E-01  0.125E-01
  16.488  0.124E-01  0.124E-01
  16.498  0.125E-01  0.125E-01
  16.508  0.127E-01  0.127E-01
  16.518  0.131E-01  0.131E-01
  16.528  0.136E-01  0.136E-01
  16.538  0.142E-01  0.142E-01
  16.548  0.150E-01  0.150E-01
  16.558  0.157E-01  0.157E-01
  16.568  0.166E-01  0.166E-01
  16.578  0.174E-01  0.174E-01
  16.588  0.182E-01  0.182E-01
  16.598  0.190E-01  0.190E-01
  16.608  0.198E-01  0.198E-01
  16.618  0.205E-01  0.205E-01
  16.628  0.210E-01  0.210E-01
  16.638  0.215E-01  0.215E-01
  16.648  0.219E-01  0.219E-01
  16.658  0.222E-01  0.222E-01
  16.668  0.223E-01  0.223E-01
  16.678  0.223E-01  0.223E-01
  16.688  0.222E-01  0.222E-01
  16.698  0.220E-01  0.220E-01
  16.708  0.217E-01  0.217E-01
  16.718  0.213E-01  0.213E-01
  16.728  0.209E-01  0.209E-01
  16.738  0.203E-01  0.203E-01
  16.748  0.197E-01  0.197E-01
  16.758  0.190E-01  0.190E-01
  16.768  0.183E-01  0.183E-01
  16.778  0.175E-01  0.175E-01
  16.788  0.167E-01  0.167E-01
  16.798  0.158E-01  0.158E-01
  16.808  0.150E-01  0.150E-01
  16.818  0.141E-01  0.141E-01
  16.828  0.132E-01  0.132E-01
  16.838  0.124E-01  0.124E-01
  16.848  0.115E-01  0.115E-01
  16.858  0.107E-01  0.107E-01
  16.868  0.997E-02  0.997E-02
  16.878  0.927E-02  0.927E-02
  16.888  0.864E-02  0.864E-02
  16.898  0.809E-02  0.809E-02
  16.908  0.762E-02  0.762E-02
  16.918  0.725E-02  0.725E-02
  16.928  0.698E-02  0.698E-02
  16.938  0.681E-02  0.681E-02
  16.948  0.675E-02  0.675E-02
  16.958  0.681E-02  0.681E-02
  16.968  0.697E-02  0.697E-02
  16.978  0.724E-02  0.724E-02
  16.988  0.762E-02  0.762E-02
  16.998  0.810E-02  0.810E-02
  17.008  0.867E-02  0.867E-02
  17.018  0.934E-02  0.934E-02
  17.028  0.101E-01  0.101E-01
  17.038  0.109E-01  0.109E-01
  17.048  0.118E-01  0.118E-01
  17.058  0.128E-01  0.128E-01
  17.068  0.138E-01  0.138E-01
  17.078  0.148E-01  0.148E-01
  17.088  0.159E-01  0.159E-01
  17.098  0.169E-01  0.169E-01
  17.108  0.180E-01  0.180E-01
  17.118  0.191E-01  0.191E-01
  17.128  0.201E-01  0.201E-01
  17.138  0.210E-01  0.210E-01
  17.148  0.219E-01  0.219E-01
  17.158  0.227E-01  0.227E-01
  17.168  0.233E-01  0.233E-01
  17.178  0.238E-01  0.238E-01
  17.188  0.242E-01  0.242E-01
  17.198  0.244E-01  0.244E-01
  17.208  0.244E-01  0.244E-01
  17.218  0.242E-01  0.242E-01
  17.228  0.239E-01  0.239E-01
  17.238  0.234E-01  0.234E-01
  17.248  0.227E-01  0.227E-01
  17.258  0.218E-01  0.218E-01
  17.268  0.208E-01  0.208E-01
  17.278  0.197E-01  0.197E-01
  17.288  0.185E-01  0.185E-01
  17.298  0.172E-01  0.172E-01
  17.308  0.158E-01  0.158E-01
  17.318  0.144E-01  0.144E-01
  17.328  0.131E-01  0.131E-01
  17.338  0.117E-01  0.117E-01
  17.348  0.105E-01  0.105E-01
  17.358  0.923E-02  0.923E-02
  17.368  0.809E-02  0.809E-02
  17.378  0.704E-02  0.704E-02
  17.388  0.608E-02  0.608E-02
  17.398  0.522E-02  0.522E-02
  17.408  0.446E-02  0.446E-02
  17.418  0.380E-02  0.380E-02
  17.428  0.323E-02  0.323E-02
  17.438  0.274E-02  0.274E-02
  17.448  0.233E-02  0.233E-02
  17.458  0.199E-02  0.199E-02
  17.468  0.171E-02  0.171E-02
  17.478  0.148E-02  0.148E-02
  17.488  0.129E-02  0.129E-02
  17.498  0.114E-02  0.114E-02
  17.508  0.102E-02  0.102E-02
  17.518  0.918E-03  0.918E-03
  17.528  0.840E-03  0.840E-03
  17.538  0.777E-03  0.777E-03
  17.548  0.728E-03  0.728E-03
  17.558  0.689E-03  0.689E-03
  17.568  0.660E-03  0.660E-03
  17.578  0.638E-03  0.638E-03
  17.588  0.624E-03  0.624E-03
  17.598  0.616E-03  0.616E-03
  17.608  0.613E-03  0.613E-03
  17.618  0.617E-03  0.617E-03
  17.628  0.624E-03  0.624E-03
  17.638  0.637E-03  0.637E-03
  17.648  0.653E-03  0.653E-03
  17.658  0.673E-03  0.673E-03
  17.668  0.697E-03  0.697E-03
  17.678  0.723E-03  0.723E-03
  17.688  0.753E-03  0.753E-03
  17.698  0.787E-03  0.787E-03
  17.708  0.824E-03  0.824E-03
  17.718  0.867E-03  0.867E-03
  17.728  0.916E-03  0.916E-03
  17.738  0.974E-03  0.974E-03
  17.748  0.104E-02  0.104E-02
  17.758  0.112E-02  0.112E-02
  17.768  0.122E-02  0.122E-02
  17.778  0.134E-02  0.134E-02
  17.788  0.149E-02  0.149E-02
  17.798  0.166E-02  0.166E-02
  17.808  0.187E-02  0.187E-02
  17.818  0.212E-02  0.212E-02
  17.828  0.241E-02  0.241E-02
  17.838  0.275E-02  0.275E-02
  17.848  0.314E-02  0.314E-02
  17.858  0.359E-02  0.359E-02
  17.868  0.409E-02  0.409E-02
  17.878  0.465E-02  0.465E-02
  17.888  0.527E-02  0.527E-02
  17.898  0.594E-02  0.594E-02
  17.908  0.666E-02  0.666E-02
  17.918  0.743E-02  0.743E-02
  17.928  0.825E-02  0.825E-02
  17.938  0.909E-02  0.909E-02
  17.948  0.996E-02  0.996E-02
  17.958  0.108E-01  0.108E-01
  17.968  0.117E-01  0.117E-01
  17.978  0.126E-01  0.126E-01
  17.988  0.135E-01  0.135E-01
  17.998  0.143E-01  0.143E-01
  18.008  0.151E-01  0.151E-01
  18.018  0.158E-01  0.158E-01
  18.028  0.165E-01  0.165E-01
  18.038  0.171E-01  0.171E-01
  18.048  0.177E-01  0.177E-01
  18.058  0.181E-01  0.181E-01
  18.068  0.185E-01  0.185E-01
  18.078  0.188E-01  0.188E-01
  18.088  0.190E-01  0.190E-01
  18.098  0.192E-01  0.192E-01
  18.108  0.192E-01  0.192E-01
  18.118  0.193E-01  0.193E-01
  18.128  0.192E-01  0.192E-01
  18.138  0.191E-01  0.191E-01
  18.148  0.190E-01  0.190E-01
  18.158  0.188E-01  0.188E-01
  18.168  0.186E-01  0.186E-01
  18.178  0.183E-01  0.183E-01
  18.188  0.181E-01  0.181E-01
  18.198  0.178E-01  0.178E-01
  18.208  0.175E-01  0.175E-01
  18.218  0.172E-01  0.172E-01
  18.228  0.169E-01  0.169E-01
  18.238  0.165E-01  0.165E-01
  18.248  0.162E-01  0.162E-01
  18.258  0.158E-01  0.158E-01
  18.268  0.154E-01  0.154E-01
  18.278  0.150E-01  0.150E-01
  18.288  0.146E-01  0.146E-01
  18.298  0.141E-01  0.141E-01
  18.308  0.137E-01  0.137E-01
  18.318  0.132E-01  0.132E-01
  18.328  0.128E-01  0.128E-01
  18.338  0.123E-01  0.123E-01
  18.348  0.118E-01  0.118E-01
  18.358  0.113E-01  0.113E-01
  18.368  0.108E-01  0.108E-01
  18.378  0.103E-01  0.103E-01
  18.388  0.980E-02  0.980E-02
  18.398  0.930E-02  0.930E-02
  18.408  0.880E-02  0.880E-02
  18.418  0.831E-02  0.831E-02
  18.428  0.782E-02  0.782E-02
  18.438  0.735E-02  0.735E-02
  18.448  0.690E-02  0.690E-02
  18.458  0.646E-02  0.646E-02
  18.468  0.605E-02  0.605E-02
  18.478  0.568E-02  0.568E-02
  18.488  0.534E-02  0.534E-02
  18.498  0.505E-02  0.505E-02
  18.508  0.482E-02  0.482E-02
  18.518  0.464E-02  0.464E-02
  18.528  0.454E-02  0.454E-02
  18.538  0.452E-02  0.452E-02
  18.548  0.459E-02  0.459E-02
  18.558  0.476E-02  0.476E-02
  18.568  0.503E-02  0.503E-02
  18.578  0.542E-02  0.542E-02
  18.588  0.594E-02  0.594E-02
  18.598  0.659E-02  0.659E-02
  18.608  0.738E-02  0.738E-02
  18.618  0.832E-02  0.832E-02
  18.628  0.940E-02  0.940E-02
  18.638  0.106E-01  0.106E-01
  18.648  0.120E-01  0.120E-01
  18.658  0.135E-01  0.135E-01
  18.668  0.152E-01  0.152E-01
  18.678  0.169E-01  0.169E-01
  18.688  0.188E-01  0.188E-01
  18.698  0.207E-01  0.207E-01
  18.708  0.227E-01  0.227E-01
  18.718  0.247E-01  0.247E-01
  18.728  0.266E-01  0.266E-01
  18.738  0.285E-01  0.285E-01
  18.748  0.303E-01  0.303E-01
  18.758  0.319E-01  0.319E-01
  18.768  0.334E-01  0.334E-01
  18.778  0.346E-01  0.346E-01
  18.788  0.355E-01  0.355E-01
  18.798  0.362E-01  0.362E-01
  18.808  0.366E-01  0.366E-01
  18.818  0.367E-01  0.367E-01
  18.828  0.364E-01  0.364E-01
  18.838  0.359E-01  0.359E-01
  18.848  0.351E-01  0.351E-01
  18.858  0.340E-01  0.340E-01
  18.868  0.327E-01  0.327E-01
  18.878  0.312E-01  0.312E-01
  18.888  0.296E-01  0.296E-01
  18.898  0.278E-01  0.278E-01
  18.908  0.260E-01  0.260E-01
  18.918  0.242E-01  0.242E-01
  18.928  0.224E-01  0.224E-01
  18.938  0.206E-01  0.206E-01
  18.948  0.190E-01  0.190E-01
  18.958  0.174E-01  0.174E-01
  18.968  0.160E-01  0.160E-01
  18.978  0.147E-01  0.147E-01
  18.988  0.137E-01  0.137E-01
  18.998  0.127E-01  0.127E-01
  19.008  0.120E-01  0.120E-01
  19.018  0.114E-01  0.114E-01
  19.028  0.109E-01  0.109E-01
  19.038  0.106E-01  0.106E-01
  19.048  0.104E-01  0.104E-01
  19.058  0.104E-01  0.104E-01
  19.068  0.105E-01  0.105E-01
  19.078  0.107E-01  0.107E-01
  19.088  0.110E-01  0.110E-01
  19.098  0.114E-01  0.114E-01
  19.108  0.119E-01  0.119E-01
  19.118  0.125E-01  0.125E-01
  19.128  0.131E-01  0.131E-01
  19.138  0.139E-01  0.139E-01
  19.148  0.146E-01  0.146E-01
  19.158  0.155E-01  0.155E-01
  19.168  0.164E-01  0.164E-01
  19.178  0.173E-01  0.173E-01
  19.188  0.183E-01  0.183E-01
  19.198  0.192E-01  0.192E-01
  19.208  0.202E-01  0.202E-01
  19.218  0.211E-01  0.211E-01
  19.228  0.219E-01  0.219E-01
  19.238  0.227E-01  0.227E-01
  19.248  0.234E-01  0.234E-01
  19.258  0.240E-01  0.240E-01
  19.268  0.245E-01  0.245E-01
  19.278  0.249E-01  0.249E-01
  19.288  0.252E-01  0.252E-01
  19.298  0.253E-01  0.253E-01
  19.308  0.254E-01  0.254E-01
  19.318  0.253E-01  0.253E-01
  19.328  0.251E-01  0.251E-01
  19.338  0.248E-01  0.248E-01
  19.348  0.245E-01  0.245E-01
  19.358  0.240E-01  0.240E-01
  19.368  0.236E-01  0.236E-01
  19.378  0.231E-01  0.231E-01
  19.388  0.226E-01  0.226E-01
  19.398  0.221E-01  0.221E-01
  19.408  0.216E-01  0.216E-01
  19.418  0.212E-01  0.212E-01
  19.428  0.207E-01  0.207E-01
  19.438  0.203E-01  0.203E-01
  19.448  0.200E-01  0.200E-01
  19.458  0.196E-01  0.196E-01
  19.468  0.193E-01  0.193E-01
  19.478  0.190E-01  0.190E-01
  19.488  0.187E-01  0.187E-01
  19.498  0.184E-01  0.184E-01
  19.508  0.182E-01  0.182E-01
  19.518  0.179E-01  0.179E-01
  19.528  0.176E-01  0.176E-01
  19.538  0.172E-01  0.172E-01
  19.548  0.169E-01  0.169E-01
  19.558  0.165E-01  0.165E-01
  19.568  0.160E-01  0.160E-01
  19.578  0.156E-01  0.156E-01
  19.588  0.151E-01  0.151E-01
  19.598  0.146E-01  0.146E-01
  19.608  0.141E-01  0.141E-01
  19.618  0.135E-01  0.135E-01
  19.628  0.130E-01  0.130E-01
  19.638  0.126E-01  0.126E-01
  19.648  0.121E-01  0.121E-01
  19.658  0.118E-01  0.118E-01
  19.668  0.115E-01  0.115E-01
  19.678  0.113E-01  0.113E-01
  19.688  0.112E-01  0.112E-01
  19.698  0.112E-01  0.112E-01
  19.708  0.113E-01  0.113E-01
  19.718  0.115E-01  0.115E-01
  19.728  0.118E-01  0.118E-01
  19.738  0.121E-01  0.121E-01
  19.748  0.126E-01  0.126E-01
  19.758  0.131E-01  0.131E-01
  19.768  0.136E-01  0.136E-01
  19.778  0.141E-01  0.141E-01
  19.788  0.145E-01  0.145E-01
  19.798  0.150E-01  0.150E-01
  19.808  0.153E-01  0.153E-01
  19.818  0.156E-01  0.156E-01
  19.828  0.158E-01  0.158E-01
  19.838  0.158E-01  0.158E-01
  19.848  0.158E-01  0.158E-01
  19.858  0.155E-01  0.155E-01
  19.868  0.152E-01  0.152E-01
  19.878  0.147E-01  0.147E-01
  19.888  0.141E-01  0.141E-01
  19.898  0.135E-01  0.135E-01
  19.908  0.127E-01  0.127E-01
  19.918  0.119E-01  0.119E-01
  19.928  0.111E-01  0.111E-01
  19.938  0.102E-01  0.102E-01
  19.948  0.936E-02  0.936E-02
  19.958  0.853E-02  0.853E-02
  19.968  0.775E-02  0.775E-02
  19.978  0.703E-02  0.703E-02
  19.988  0.638E-02  0.638E-02
  19.998  0.580E-02  0.580E-02
  20.008  0.530E-02  0.530E-02
  20.018  0.489E-02  0.489E-02
  20.028  0.455E-02  0.455E-02
  20.038  0.428E-02  0.428E-02
  20.048  0.408E-02  0.408E-02
  20.058  0.394E-02  0.394E-02
  20.068  0.384E-02  0.384E-02
  20.078  0.378E-02  0.378E-02
  20.088  0.375E-02  0.375E-02
  20.098  0.373E-02  0.373E-02
  20.108  0.371E-02  0.371E-02
  20.118  0.369E-02  0.369E-02
  20.128  0.366E-02  0.366E-02
  20.138  0.362E-02  0.362E-02
  20.148  0.355E-02  0.355E-02
  20.158  0.347E-02  0.347E-02
  20.168  0.336E-02  0.336E-02
  20.178  0.323E-02  0.323E-02
  20.188  0.309E-02  0.309E-02
  20.198  0.293E-02  0.293E-02
  20.208  0.276E-02  0.276E-02
  20.218  0.258E-02  0.258E-02
  20.228  0.241E-02  0.241E-02
  20.238  0.225E-02  0.225E-02
  20.248  0.209E-02  0.209E-02
  20.258  0.196E-02  0.196E-02
  20.268  0.185E-02  0.185E-02
  20.278  0.176E-02  0.176E-02
  20.288  0.171E-02  0.171E-02
  20.298  0.168E-02  0.168E-02
  20.308  0.169E-02  0.169E-02
  20.318  0.172E-02  0.172E-02
  20.328  0.179E-02  0.179E-02
  20.338  0.189E-02  0.189E-02
  20.348  0.201E-02  0.201E-02
  20.358  0.215E-02  0.215E-02
  20.368  0.231E-02  0.231E-02
  20.378  0.248E-02  0.248E-02
  20.388  0.265E-02  0.265E-02
  20.398  0.283E-02  0.283E-02
  20.408  0.300E-02  0.300E-02
  20.418  0.316E-02  0.316E-02
  20.428  0.330E-02  0.330E-02
  20.438  0.343E-02  0.343E-02
  20.448  0.354E-02  0.354E-02
  20.458  0.363E-02  0.363E-02
  20.468  0.369E-02  0.369E-02
  20.478  0.373E-02  0.373E-02
  20.488  0.376E-02  0.376E-02
  20.498  0.376E-02  0.376E-02
  20.508  0.375E-02  0.375E-02
  20.518  0.373E-02  0.373E-02
  20.528  0.371E-02  0.371E-02
  20.538  0.368E-02  0.368E-02
  20.548  0.366E-02  0.366E-02
  20.558  0.364E-02  0.364E-02
  20.568  0.363E-02  0.363E-02
  20.578  0.364E-02  0.364E-02
  20.588  0.366E-02  0.366E-02
  20.598  0.370E-02  0.370E-02
  20.608  0.376E-02  0.376E-02
  20.618  0.383E-02  0.383E-02
  20.628  0.393E-02  0.393E-02
  20.638  0.404E-02  0.404E-02
  20.648  0.417E-02  0.417E-02
  20.658  0.432E-02  0.432E-02
  20.668  0.448E-02  0.448E-02
  20.678  0.466E-02  0.466E-02
  20.688  0.484E-02  0.484E-02
  20.698  0.504E-02  0.504E-02
  20.708  0.525E-02  0.525E-02
  20.718  0.546E-02  0.546E-02
  20.728  0.567E-02  0.567E-02
  20.738  0.588E-02  0.588E-02
  20.748  0.608E-02  0.608E-02
  20.758  0.627E-02  0.627E-02
  20.768  0.645E-02  0.645E-02
  20.778  0.661E-02  0.661E-02
  20.788  0.674E-02  0.674E-02
  20.798  0.685E-02  0.685E-02
  20.808  0.692E-02  0.692E-02
  20.818  0.696E-02  0.696E-02
  20.828  0.697E-02  0.697E-02
  20.838  0.694E-02  0.694E-02
  20.848  0.687E-02  0.687E-02
  20.858  0.677E-02  0.677E-02
  20.868  0.664E-02  0.664E-02
  20.878  0.648E-02  0.648E-02
  20.888  0.630E-02  0.630E-02
  20.898  0.609E-02  0.609E-02
  20.908  0.588E-02  0.588E-02
  20.918  0.565E-02  0.565E-02
  20.928  0.543E-02  0.543E-02
  20.938  0.521E-02  0.521E-02
  20.948  0.500E-02  0.500E-02
  20.958  0.481E-02  0.481E-02
  20.968  0.463E-02  0.463E-02
  20.978  0.449E-02  0.449E-02
  20.988  0.436E-02  0.436E-02
  20.998  0.427E-02  0.427E-02
  21.008  0.421E-02  0.421E-02
  21.018  0.418E-02  0.418E-02
  21.028  0.417E-02  0.417E-02
  21.038  0.420E-02  0.420E-02
  21.048  0.425E-02  0.425E-02
  21.058  0.432E-02  0.432E-02
  21.068  0.441E-02  0.441E-02
  21.078  0.451E-02  0.451E-02
  21.088  0.462E-02  0.462E-02
  21.098  0.474E-02  0.474E-02
  21.108  0.485E-02  0.485E-02
  21.118  0.497E-02  0.497E-02
  21.128  0.507E-02  0.507E-02
  21.138  0.517E-02  0.517E-02
  21.148  0.525E-02  0.525E-02
  21.158  0.531E-02  0.531E-02
  21.168  0.536E-02  0.536E-02
  21.178  0.540E-02  0.540E-02
  21.188  0.542E-02  0.542E-02
  21.198  0.542E-02  0.542E-02
  21.208  0.541E-02  0.541E-02
  21.218  0.539E-02  0.539E-02
  21.228  0.536E-02  0.536E-02
  21.238  0.533E-02  0.533E-02
  21.248  0.529E-02  0.529E-02
  21.258  0.525E-02  0.525E-02
  21.268  0.521E-02  0.521E-02
  21.278  0.517E-02  0.517E-02
  21.288  0.513E-02  0.513E-02
  21.298  0.509E-02  0.509E-02
  21.308  0.506E-02  0.506E-02
  21.318  0.502E-02  0.502E-02
  21.328  0.498E-02  0.498E-02
  21.338  0.494E-02  0.494E-02
  21.348  0.489E-02  0.489E-02
  21.358  0.483E-02  0.483E-02
  21.368  0.476E-02  0.476E-02
  21.378  0.467E-02  0.467E-02
  21.388  0.458E-02  0.458E-02
  21.398  0.447E-02  0.447E-02
  21.408  0.435E-02  0.435E-02
  21.418  0.422E-02  0.422E-02
  21.428  0.408E-02  0.408E-02
  21.438  0.394E-02  0.394E-02
  21.448  0.379E-02  0.379E-02
  21.458  0.364E-02  0.364E-02
  21.468  0.349E-02  0.349E-02
  21.478  0.335E-02  0.335E-02
  21.488  0.322E-02  0.322E-02
  21.498  0.311E-02  0.311E-02
  21.508  0.300E-02  0.300E-02
  21.518  0.291E-02  0.291E-02
  21.528  0.284E-02  0.284E-02
  21.538  0.278E-02  0.278E-02
  21.548  0.273E-02  0.273E-02
  21.558  0.270E-02  0.270E-02
  21.568  0.268E-02  0.268E-02
  21.578  0.268E-02  0.268E-02
  21.588  0.268E-02  0.268E-02
  21.598  0.269E-02  0.269E-02
  21.608  0.271E-02  0.271E-02
  21.618  0.273E-02  0.273E-02
  21.628  0.276E-02  0.276E-02
  21.638  0.280E-02  0.280E-02
  21.648  0.284E-02  0.284E-02
  21.658  0.288E-02  0.288E-02
  21.668  0.293E-02  0.293E-02
  21.678  0.298E-02  0.298E-02
  21.688  0.304E-02  0.304E-02
  21.698  0.309E-02  0.309E-02
  21.708  0.315E-02  0.315E-02
  21.718  0.320E-02  0.320E-02
  21.728  0.325E-02  0.325E-02
  21.738  0.330E-02  0.330E-02
  21.748  0.333E-02  0.333E-02
  21.758  0.336E-02  0.336E-02
  21.768  0.337E-02  0.337E-02
  21.778  0.337E-02  0.337E-02
  21.788  0.335E-02  0.335E-02
  21.798  0.332E-02  0.332E-02
  21.808  0.327E-02  0.327E-02
  21.818  0.321E-02  0.321E-02
  21.828  0.314E-02  0.314E-02
  21.838  0.305E-02  0.305E-02
  21.848  0.295E-02  0.295E-02
  21.858  0.285E-02  0.285E-02
  21.868  0.274E-02  0.274E-02
  21.878  0.262E-02  0.262E-02
  21.888  0.251E-02  0.251E-02
  21.898  0.240E-02  0.240E-02
  21.908  0.230E-02  0.230E-02
  21.918  0.221E-02  0.221E-02
  21.928  0.213E-02  0.213E-02
  21.938  0.207E-02  0.207E-02
  21.948  0.202E-02  0.202E-02
  21.958  0.200E-02  0.200E-02
  21.968  0.199E-02  0.199E-02
  21.978  0.200E-02  0.200E-02
  21.988  0.203E-02  0.203E-02
  21.998  0.209E-02  0.209E-02
  22.008  0.216E-02  0.216E-02
  22.018  0.225E-02  0.225E-02
  22.028  0.235E-02  0.235E-02
  22.038  0.247E-02  0.247E-02
  22.048  0.260E-02  0.260E-02
  22.058  0.273E-02  0.273E-02
  22.068  0.287E-02  0.287E-02
  22.078  0.300E-02  0.300E-02
  22.088  0.313E-02  0.313E-02
  22.098  0.325E-02  0.325E-02
  22.108  0.335E-02  0.335E-02
  22.118  0.344E-02  0.344E-02
  22.128  0.351E-02  0.351E-02
  22.138  0.356E-02  0.356E-02
  22.148  0.359E-02  0.359E-02
  22.158  0.360E-02  0.360E-02
  22.168  0.359E-02  0.359E-02
  22.178  0.355E-02  0.355E-02
  22.188  0.351E-02  0.351E-02
  22.198  0.345E-02  0.345E-02
  22.208  0.337E-02  0.337E-02
  22.218  0.329E-02  0.329E-02
  22.228  0.321E-02  0.321E-02
  22.238  0.312E-02  0.312E-02
  22.248  0.303E-02  0.303E-02
  22.258  0.295E-02  0.295E-02
  22.268  0.288E-02  0.288E-02
  22.278  0.281E-02  0.281E-02
  22.288  0.276E-02  0.276E-02
  22.298  0.271E-02  0.271E-02
  22.308  0.268E-02  0.268E-02
  22.318  0.265E-02  0.265E-02
  22.328  0.264E-02  0.264E-02
  22.338  0.264E-02  0.264E-02
  22.348  0.264E-02  0.264E-02
  22.358  0.266E-02  0.266E-02
  22.368  0.269E-02  0.269E-02
  22.378  0.272E-02  0.272E-02
  22.388  0.277E-02  0.277E-02
  22.398  0.283E-02  0.283E-02
  22.408  0.289E-02  0.289E-02
  22.418  0.297E-02  0.297E-02
  22.428  0.307E-02  0.307E-02
  22.438  0.318E-02  0.318E-02
  22.448  0.330E-02  0.330E-02
  22.458  0.345E-02  0.345E-02
  22.468  0.361E-02  0.361E-02
  22.478  0.379E-02  0.379E-02
  22.488  0.400E-02  0.400E-02
  22.498  0.423E-02  0.423E-02
  22.508  0.448E-02  0.448E-02
  22.518  0.474E-02  0.474E-02
  22.528  0.503E-02  0.503E-02
  22.538  0.532E-02  0.532E-02
  22.548  0.562E-02  0.562E-02
  22.558  0.591E-02  0.591E-02
  22.568  0.621E-02  0.621E-02
  22.578  0.649E-02  0.649E-02
  22.588  0.675E-02  0.675E-02
  22.598  0.700E-02  0.700E-02
  22.608  0.721E-02  0.721E-02
  22.618  0.739E-02  0.739E-02
  22.628  0.754E-02  0.754E-02
  22.638  0.765E-02  0.765E-02
  22.648  0.772E-02  0.772E-02
  22.658  0.776E-02  0.776E-02
  22.668  0.776E-02  0.776E-02
  22.678  0.773E-02  0.773E-02
  22.688  0.768E-02  0.768E-02
  22.698  0.760E-02  0.760E-02
  22.708  0.750E-02  0.750E-02
  22.718  0.739E-02  0.739E-02
  22.728  0.728E-02  0.728E-02
  22.738  0.716E-02  0.716E-02
  22.748  0.704E-02  0.704E-02
  22.758  0.693E-02  0.693E-02
  22.768  0.682E-02  0.682E-02
  22.778  0.672E-02  0.672E-02
  22.788  0.663E-02  0.663E-02
  22.798  0.654E-02  0.654E-02
  22.808  0.647E-02  0.647E-02
  22.818  0.640E-02  0.640E-02
  22.828  0.634E-02  0.634E-02
  22.838  0.628E-02  0.628E-02
  22.848  0.623E-02  0.623E-02
  22.858  0.617E-02  0.617E-02
  22.868  0.611E-02  0.611E-02
  22.878  0.604E-02  0.604E-02
  22.888  0.597E-02  0.597E-02
  22.898  0.589E-02  0.589E-02
  22.908  0.579E-02  0.579E-02
  22.918  0.568E-02  0.568E-02
  22.928  0.557E-02  0.557E-02
  22.938  0.544E-02  0.544E-02
  22.948  0.530E-02  0.530E-02
  22.958  0.515E-02  0.515E-02
  22.968  0.499E-02  0.499E-02
  22.978  0.483E-02  0.483E-02
  22.988  0.467E-02  0.467E-02
  22.998  0.451E-02  0.451E-02
  23.008  0.435E-02  0.435E-02
  23.018  0.419E-02  0.419E-02
  23.028  0.404E-02  0.404E-02
  23.038  0.389E-02  0.389E-02
  23.048  0.375E-02  0.375E-02
  23.058  0.361E-02  0.361E-02
  23.068  0.348E-02  0.348E-02
  23.078  0.336E-02  0.336E-02
  23.088  0.323E-02  0.323E-02
  23.098  0.311E-02  0.311E-02
  23.108  0.299E-02  0.299E-02
  23.118  0.287E-02  0.287E-02
  23.128  0.275E-02  0.275E-02
  23.138  0.263E-02  0.263E-02
  23.148  0.251E-02  0.251E-02
  23.158  0.239E-02  0.239E-02
  23.168  0.226E-02  0.226E-02
  23.178  0.215E-02  0.215E-02
  23.188  0.203E-02  0.203E-02
  23.198  0.193E-02  0.193E-02
  23.208  0.183E-02  0.183E-02
  23.218  0.174E-02  0.174E-02
  23.228  0.166E-02  0.166E-02
  23.238  0.160E-02  0.160E-02
  23.248  0.155E-02  0.155E-02
  23.258  0.152E-02  0.152E-02
  23.268  0.150E-02  0.150E-02
  23.278  0.150E-02  0.150E-02
  23.288  0.152E-02  0.152E-02
  23.298  0.155E-02  0.155E-02
  23.308  0.159E-02  0.159E-02
  23.318  0.165E-02  0.165E-02
  23.328  0.172E-02  0.172E-02
  23.338  0.180E-02  0.180E-02
  23.348  0.190E-02  0.190E-02
  23.358  0.200E-02  0.200E-02
  23.368  0.210E-02  0.210E-02
  23.378  0.221E-02  0.221E-02
  23.388  0.233E-02  0.233E-02
  23.398  0.245E-02  0.245E-02
  23.408  0.258E-02  0.258E-02
  23.418  0.271E-02  0.271E-02
  23.428  0.284E-02  0.284E-02
  23.438  0.297E-02  0.297E-02
  23.448  0.311E-02  0.311E-02
  23.458  0.325E-02  0.325E-02
  23.468  0.340E-02  0.340E-02
  23.478  0.354E-02  0.354E-02
  23.488  0.369E-02  0.369E-02
  23.498  0.384E-02  0.384E-02
  23.508  0.399E-02  0.399E-02
  23.518  0.414E-02  0.414E-02
  23.528  0.428E-02  0.428E-02
  23.538  0.441E-02  0.441E-02
  23.548  0.454E-02  0.454E-02
  23.558  0.465E-02  0.465E-02
  23.568  0.474E-02  0.474E-02
  23.578  0.482E-02  0.482E-02
  23.588  0.489E-02  0.489E-02
  23.598  0.493E-02  0.493E-02
  23.608  0.496E-02  0.496E-02
  23.618  0.498E-02  0.498E-02
  23.628  0.498E-02  0.498E-02
  23.638  0.498E-02  0.498E-02
  23.648  0.497E-02  0.497E-02
  23.658  0.496E-02  0.496E-02
  23.668  0.496E-02  0.496E-02
  23.678  0.497E-02  0.497E-02
  23.688  0.499E-02  0.499E-02
  23.698  0.503E-02  0.503E-02
  23.708  0.510E-02  0.510E-02
  23.718  0.520E-02  0.520E-02
  23.728  0.532E-02  0.532E-02
  23.738  0.548E-02  0.548E-02
  23.748  0.566E-02  0.566E-02
  23.758  0.587E-02  0.587E-02
  23.768  0.610E-02  0.610E-02
  23.778  0.635E-02  0.635E-02
  23.788  0.662E-02  0.662E-02
  23.798  0.688E-02  0.688E-02
  23.808  0.715E-02  0.715E-02
  23.818  0.740E-02  0.740E-02
  23.828  0.763E-02  0.763E-02
  23.838  0.784E-02  0.784E-02
  23.848  0.801E-02  0.801E-02
  23.858  0.814E-02  0.814E-02
  23.868  0.822E-02  0.822E-02
  23.878  0.826E-02  0.826E-02
  23.888  0.824E-02  0.824E-02
  23.898  0.818E-02  0.818E-02
  23.908  0.806E-02  0.806E-02
  23.918  0.791E-02  0.791E-02
  23.928  0.771E-02  0.771E-02
  23.938  0.748E-02  0.748E-02
  23.948  0.723E-02  0.723E-02
  23.958  0.696E-02  0.696E-02
  23.968  0.669E-02  0.669E-02
  23.978  0.641E-02  0.641E-02
  23.988  0.614E-02  0.614E-02
  23.998  0.589E-02  0.589E-02
  24.008  0.565E-02  0.565E-02
  24.018  0.543E-02  0.543E-02
  24.028  0.524E-02  0.524E-02
  24.038  0.508E-02  0.508E-02
  24.048  0.494E-02  0.494E-02
  24.058  0.483E-02  0.483E-02
  24.068  0.474E-02  0.474E-02
  24.078  0.467E-02  0.467E-02
  24.088  0.462E-02  0.462E-02
  24.098  0.459E-02  0.459E-02
  24.108  0.457E-02  0.457E-02
  24.118  0.455E-02  0.455E-02
  24.128  0.453E-02  0.453E-02
  24.138  0.452E-02  0.452E-02
  24.148  0.450E-02  0.450E-02
  24.158  0.447E-02  0.447E-02
  24.168  0.443E-02  0.443E-02
  24.178  0.438E-02  0.438E-02
  24.188  0.431E-02  0.431E-02
  24.198  0.423E-02  0.423E-02
  24.208  0.414E-02  0.414E-02
  24.218  0.403E-02  0.403E-02
  24.228  0.391E-02  0.391E-02
  24.238  0.379E-02  0.379E-02
  24.248  0.366E-02  0.366E-02
  24.258  0.353E-02  0.353E-02
  24.268  0.341E-02  0.341E-02
  24.278  0.330E-02  0.330E-02
  24.288  0.320E-02  0.320E-02
  24.298  0.312E-02  0.312E-02
  24.308  0.307E-02  0.307E-02
  24.318  0.305E-02  0.305E-02
  24.328  0.306E-02  0.306E-02
  24.338  0.311E-02  0.311E-02
  24.348  0.319E-02  0.319E-02
  24.358  0.330E-02  0.330E-02
  24.368  0.345E-02  0.345E-02
  24.378  0.363E-02  0.363E-02
  24.388  0.383E-02  0.383E-02
  24.398  0.405E-02  0.405E-02
  24.408  0.429E-02  0.429E-02
  24.418  0.453E-02  0.453E-02
  24.428  0.478E-02  0.478E-02
  24.438  0.503E-02  0.503E-02
  24.448  0.526E-02  0.526E-02
  24.458  0.549E-02  0.549E-02
  24.468  0.570E-02  0.570E-02
  24.478  0.589E-02  0.589E-02
  24.488  0.607E-02  0.607E-02
  24.498  0.623E-02  0.623E-02
  24.508  0.638E-02  0.638E-02
  24.518  0.652E-02  0.652E-02
  24.528  0.665E-02  0.665E-02
  24.538  0.678E-02  0.678E-02
  24.548  0.692E-02  0.692E-02
  24.558  0.706E-02  0.706E-02
  24.568  0.720E-02  0.720E-02
  24.578  0.736E-02  0.736E-02
  24.588  0.752E-02  0.752E-02
  24.598  0.769E-02  0.769E-02
  24.608  0.787E-02  0.787E-02
  24.618  0.804E-02  0.804E-02
  24.628  0.821E-02  0.821E-02
  24.638  0.836E-02  0.836E-02
  24.648  0.849E-02  0.849E-02
  24.658  0.859E-02  0.859E-02
  24.668  0.865E-02  0.865E-02
  24.678  0.868E-02  0.868E-02
  24.688  0.866E-02  0.866E-02
  24.698  0.859E-02  0.859E-02
  24.708  0.846E-02  0.846E-02
  24.718  0.829E-02  0.829E-02
  24.728  0.807E-02  0.807E-02
  24.738  0.780E-02  0.780E-02
  24.748  0.749E-02  0.749E-02
  24.758  0.714E-02  0.714E-02
  24.768  0.677E-02  0.677E-02
  24.778  0.637E-02  0.637E-02
  24.788  0.596E-02  0.596E-02
  24.798  0.555E-02  0.555E-02
  24.808  0.514E-02  0.514E-02
  24.818  0.473E-02  0.473E-02
  24.828  0.435E-02  0.435E-02
  24.838  0.398E-02  0.398E-02
  24.848  0.365E-02  0.365E-02
  24.858  0.334E-02  0.334E-02
  24.868  0.308E-02  0.308E-02
  24.878  0.285E-02  0.285E-02
  24.888  0.266E-02  0.266E-02
  24.898  0.251E-02  0.251E-02
  24.908  0.240E-02  0.240E-02
  24.918  0.234E-02  0.234E-02
  24.928  0.231E-02  0.231E-02
  24.938  0.232E-02  0.232E-02
  24.948  0.237E-02  0.237E-02
  24.958  0.245E-02  0.245E-02
  24.968  0.256E-02  0.256E-02
  24.978  0.269E-02  0.269E-02
  24.988  0.285E-02  0.285E-02
  24.998  0.302E-02  0.302E-02
  25.008  0.320E-02  0.320E-02
  25.018  0.339E-02  0.339E-02
  25.028  0.358E-02  0.358E-02
  25.038  0.376E-02  0.376E-02
  25.048  0.393E-02  0.393E-02
  25.058  0.409E-02  0.409E-02
  25.068  0.423E-02  0.423E-02
  25.078  0.435E-02  0.435E-02
  25.088  0.444E-02  0.444E-02
  25.098  0.450E-02  0.450E-02
  25.108  0.453E-02  0.453E-02
  25.118  0.452E-02  0.452E-02
  25.128  0.448E-02  0.448E-02
  25.138  0.441E-02  0.441E-02
  25.148  0.431E-02  0.431E-02
  25.158  0.417E-02  0.417E-02
  25.168  0.401E-02  0.401E-02
  25.178  0.383E-02  0.383E-02
  25.188  0.362E-02  0.362E-02
  25.198  0.340E-02  0.340E-02
  25.208  0.317E-02  0.317E-02
  25.218  0.294E-02  0.294E-02
  25.228  0.270E-02  0.270E-02
  25.238  0.247E-02  0.247E-02
  25.248  0.225E-02  0.225E-02
  25.258  0.205E-02  0.205E-02
  25.268  0.186E-02  0.186E-02
  25.278  0.169E-02  0.169E-02
  25.288  0.154E-02  0.154E-02
  25.298  0.142E-02  0.142E-02
  25.308  0.133E-02  0.133E-02
  25.318  0.126E-02  0.126E-02
  25.328  0.122E-02  0.122E-02
  25.338  0.120E-02  0.120E-02
  25.348  0.121E-02  0.121E-02
  25.358  0.125E-02  0.125E-02
  25.368  0.130E-02  0.130E-02
  25.378  0.138E-02  0.138E-02
  25.388  0.147E-02  0.147E-02
  25.398  0.157E-02  0.157E-02
  25.408  0.169E-02  0.169E-02
  25.418  0.181E-02  0.181E-02
  25.428  0.193E-02  0.193E-02
  25.438  0.206E-02  0.206E-02
  25.448  0.218E-02  0.218E-02
  25.458  0.230E-02  0.230E-02
  25.468  0.241E-02  0.241E-02
  25.478  0.250E-02  0.250E-02
  25.488  0.259E-02  0.259E-02
  25.498  0.267E-02  0.267E-02
  25.508  0.273E-02  0.273E-02
  25.518  0.279E-02  0.279E-02
  25.528  0.283E-02  0.283E-02
  25.538  0.287E-02  0.287E-02
  25.548  0.291E-02  0.291E-02
  25.558  0.295E-02  0.295E-02
  25.568  0.298E-02  0.298E-02
  25.578  0.303E-02  0.303E-02
  25.588  0.308E-02  0.308E-02
  25.598  0.315E-02  0.315E-02
  25.608  0.323E-02  0.323E-02
  25.618  0.332E-02  0.332E-02
  25.628  0.343E-02  0.343E-02
  25.638  0.356E-02  0.356E-02
  25.648  0.370E-02  0.370E-02
  25.658  0.385E-02  0.385E-02
  25.668  0.401E-02  0.401E-02
  25.678  0.417E-02  0.417E-02
  25.688  0.434E-02  0.434E-02
  25.698  0.449E-02  0.449E-02
  25.708  0.464E-02  0.464E-02
  25.718  0.477E-02  0.477E-02
  25.728  0.487E-02  0.487E-02
  25.738  0.495E-02  0.495E-02
  25.748  0.500E-02  0.500E-02
  25.758  0.502E-02  0.502E-02
  25.768  0.500E-02  0.500E-02
  25.778  0.495E-02  0.495E-02
  25.788  0.486E-02  0.486E-02
  25.798  0.473E-02  0.473E-02
  25.808  0.458E-02  0.458E-02
  25.818  0.439E-02  0.439E-02
  25.828  0.418E-02  0.418E-02
  25.838  0.394E-02  0.394E-02
  25.848  0.370E-02  0.370E-02
  25.858  0.344E-02  0.344E-02
  25.868  0.318E-02  0.318E-02
  25.878  0.291E-02  0.291E-02
  25.888  0.266E-02  0.266E-02
  25.898  0.241E-02  0.241E-02
  25.908  0.217E-02  0.217E-02
  25.918  0.195E-02  0.195E-02
  25.928  0.174E-02  0.174E-02
  25.938  0.155E-02  0.155E-02
  25.948  0.138E-02  0.138E-02
  25.958  0.123E-02  0.123E-02
  25.968  0.110E-02  0.110E-02
  25.978  0.992E-03  0.992E-03
  25.988  0.896E-03  0.896E-03
  25.998  0.817E-03  0.817E-03
  26.008  0.753E-03  0.753E-03
  26.018  0.703E-03  0.703E-03
  26.028  0.666E-03  0.666E-03
  26.038  0.641E-03  0.641E-03
  26.048  0.628E-03  0.628E-03
  26.058  0.625E-03  0.625E-03
  26.068  0.634E-03  0.634E-03
  26.078  0.654E-03  0.654E-03
  26.088  0.686E-03  0.686E-03
  26.098  0.729E-03  0.729E-03
  26.108  0.785E-03  0.785E-03
  26.118  0.854E-03  0.854E-03
  26.128  0.935E-03  0.935E-03
  26.138  0.103E-02  0.103E-02
  26.148  0.114E-02  0.114E-02
  26.158  0.126E-02  0.126E-02
  26.168  0.140E-02  0.140E-02
  26.178  0.154E-02  0.154E-02
  26.188  0.170E-02  0.170E-02
  26.198  0.186E-02  0.186E-02
  26.208  0.203E-02  0.203E-02
  26.218  0.220E-02  0.220E-02
  26.228  0.237E-02  0.237E-02
  26.238  0.253E-02  0.253E-02
  26.248  0.269E-02  0.269E-02
  26.258  0.283E-02  0.283E-02
  26.268  0.297E-02  0.297E-02
  26.278  0.308E-02  0.308E-02
  26.288  0.318E-02  0.318E-02
  26.298  0.326E-02  0.326E-02
  26.308  0.332E-02  0.332E-02
  26.318  0.335E-02  0.335E-02
  26.328  0.337E-02  0.337E-02
  26.338  0.336E-02  0.336E-02
  26.348  0.333E-02  0.333E-02
  26.358  0.329E-02  0.329E-02
  26.368  0.324E-02  0.324E-02
  26.378  0.317E-02  0.317E-02
  26.388  0.310E-02  0.310E-02
  26.398  0.302E-02  0.302E-02
  26.408  0.294E-02  0.294E-02
  26.418  0.285E-02  0.285E-02
  26.428  0.277E-02  0.277E-02
  26.438  0.270E-02  0.270E-02
  26.448  0.263E-02  0.263E-02
  26.458  0.256E-02  0.256E-02
  26.468  0.250E-02  0.250E-02
  26.478  0.245E-02  0.245E-02
  26.488  0.240E-02  0.240E-02
  26.498  0.236E-02  0.236E-02
  26.508  0.232E-02  0.232E-02
  26.518  0.228E-02  0.228E-02
  26.528  0.224E-02  0.224E-02
  26.538  0.220E-02  0.220E-02
  26.548  0.215E-02  0.215E-02
  26.558  0.211E-02  0.211E-02
  26.568  0.205E-02  0.205E-02
  26.578  0.200E-02  0.200E-02
  26.588  0.193E-02  0.193E-02
  26.598  0.187E-02  0.187E-02
  26.608  0.180E-02  0.180E-02
  26.618  0.173E-02  0.173E-02
  26.628  0.165E-02  0.165E-02
  26.638  0.158E-02  0.158E-02
  26.648  0.152E-02  0.152E-02
  26.658  0.145E-02  0.145E-02
  26.668  0.140E-02  0.140E-02
  26.678  0.135E-02  0.135E-02
  26.688  0.132E-02  0.132E-02
  26.698  0.130E-02  0.130E-02
  26.708  0.129E-02  0.129E-02
  26.718  0.130E-02  0.130E-02
  26.728  0.132E-02  0.132E-02
  26.738  0.135E-02  0.135E-02
  26.748  0.140E-02  0.140E-02
  26.758  0.145E-02  0.145E-02
  26.768  0.152E-02  0.152E-02
  26.778  0.160E-02  0.160E-02
  26.788  0.168E-02  0.168E-02
  26.798  0.176E-02  0.176E-02
  26.808  0.184E-02  0.184E-02
  26.818  0.192E-02  0.192E-02
  26.828  0.199E-02  0.199E-02
  26.838  0.205E-02  0.205E-02
  26.848  0.209E-02  0.209E-02
  26.858  0.213E-02  0.213E-02
  26.868  0.215E-02  0.215E-02
  26.878  0.215E-02  0.215E-02
  26.888  0.213E-02  0.213E-02
  26.898  0.210E-02  0.210E-02
  26.908  0.205E-02  0.205E-02
  26.918  0.198E-02  0.198E-02
  26.928  0.190E-02  0.190E-02
  26.938  0.181E-02  0.181E-02
  26.948  0.171E-02  0.171E-02
  26.958  0.161E-02  0.161E-02
  26.968  0.150E-02  0.150E-02
  26.978  0.139E-02  0.139E-02
  26.988  0.128E-02  0.128E-02
  26.998  0.118E-02  0.118E-02
  27.008  0.109E-02  0.109E-02
  27.018  0.100E-02  0.100E-02
  27.028  0.927E-03  0.927E-03
  27.038  0.862E-03  0.862E-03
  27.048  0.810E-03  0.810E-03
  27.058  0.770E-03  0.770E-03
  27.068  0.743E-03  0.743E-03
  27.078  0.729E-03  0.729E-03
  27.088  0.728E-03  0.728E-03
  27.098  0.740E-03  0.740E-03
  27.108  0.765E-03  0.765E-03
  27.118  0.801E-03  0.801E-03
  27.128  0.850E-03  0.850E-03
  27.138  0.909E-03  0.909E-03
  27.148  0.980E-03  0.980E-03
  27.158  0.106E-02  0.106E-02
  27.168  0.115E-02  0.115E-02
  27.178  0.125E-02  0.125E-02
  27.188  0.136E-02  0.136E-02
  27.198  0.148E-02  0.148E-02
  27.208  0.160E-02  0.160E-02
  27.218  0.173E-02  0.173E-02
  27.228  0.187E-02  0.187E-02
  27.238  0.200E-02  0.200E-02
  27.248  0.214E-02  0.214E-02
  27.258  0.228E-02  0.228E-02
  27.268  0.241E-02  0.241E-02
  27.278  0.253E-02  0.253E-02
  27.288  0.265E-02  0.265E-02
  27.298  0.275E-02  0.275E-02
  27.308  0.284E-02  0.284E-02
  27.318  0.291E-02  0.291E-02
  27.328  0.297E-02  0.297E-02
  27.338  0.300E-02  0.300E-02
  27.348  0.301E-02  0.301E-02
  27.358  0.300E-02  0.300E-02
  27.368  0.297E-02  0.297E-02
  27.378  0.292E-02  0.292E-02
  27.388  0.284E-02  0.284E-02
  27.398  0.274E-02  0.274E-02
  27.408  0.263E-02  0.263E-02
  27.418  0.250E-02  0.250E-02
  27.428  0.235E-02  0.235E-02
  27.438  0.220E-02  0.220E-02
  27.448  0.204E-02  0.204E-02
  27.458  0.187E-02  0.187E-02
  27.468  0.171E-02  0.171E-02
  27.478  0.155E-02  0.155E-02
  27.488  0.139E-02  0.139E-02
  27.498  0.124E-02  0.124E-02
  27.508  0.110E-02  0.110E-02
  27.518  0.970E-03  0.970E-03
  27.528  0.853E-03  0.853E-03
  27.538  0.749E-03  0.749E-03
  27.548  0.659E-03  0.659E-03
  27.558  0.581E-03  0.581E-03
  27.568  0.517E-03  0.517E-03
  27.578  0.465E-03  0.465E-03
  27.588  0.426E-03  0.426E-03
  27.598  0.398E-03  0.398E-03
  27.608  0.380E-03  0.380E-03
  27.618  0.372E-03  0.372E-03
  27.628  0.373E-03  0.373E-03
  27.638  0.382E-03  0.382E-03
  27.648  0.398E-03  0.398E-03
  27.658  0.420E-03  0.420E-03
  27.668  0.447E-03  0.447E-03
  27.678  0.478E-03  0.478E-03
  27.688  0.512E-03  0.512E-03
  27.698  0.548E-03  0.548E-03
  27.708  0.586E-03  0.586E-03
  27.718  0.623E-03  0.623E-03
  27.728  0.660E-03  0.660E-03
  27.738  0.694E-03  0.694E-03
  27.748  0.725E-03  0.725E-03
  27.758  0.752E-03  0.752E-03
  27.768  0.774E-03  0.774E-03
  27.778  0.790E-03  0.790E-03
  27.788  0.799E-03  0.799E-03
  27.798  0.801E-03  0.801E-03
  27.808  0.796E-03  0.796E-03
  27.818  0.783E-03  0.783E-03
  27.828  0.764E-03  0.764E-03
  27.838  0.738E-03  0.738E-03
  27.848  0.706E-03  0.706E-03
  27.858  0.669E-03  0.669E-03
  27.868  0.628E-03  0.628E-03
  27.878  0.584E-03  0.584E-03
  27.888  0.537E-03  0.537E-03
  27.898  0.490E-03  0.490E-03
  27.908  0.444E-03  0.444E-03
  27.918  0.398E-03  0.398E-03
  27.928  0.355E-03  0.355E-03
  27.938  0.315E-03  0.315E-03
  27.948  0.278E-03  0.278E-03
  27.958  0.247E-03  0.247E-03
  27.968  0.220E-03  0.220E-03
  27.978  0.198E-03  0.198E-03
  27.988  0.182E-03  0.182E-03
  27.998  0.172E-03  0.172E-03
  28.008  0.168E-03  0.168E-03
  28.018  0.171E-03  0.171E-03
  28.028  0.180E-03  0.180E-03
  28.038  0.195E-03  0.195E-03
  28.048  0.217E-03  0.217E-03
  28.058  0.246E-03  0.246E-03
  28.068  0.280E-03  0.280E-03
  28.078  0.321E-03  0.321E-03
  28.088  0.367E-03  0.367E-03
  28.098  0.418E-03  0.418E-03
  28.108  0.474E-03  0.474E-03
  28.118  0.533E-03  0.533E-03
  28.128  0.595E-03  0.595E-03
  28.138  0.658E-03  0.658E-03
  28.148  0.721E-03  0.721E-03
  28.158  0.783E-03  0.783E-03
  28.168  0.842E-03  0.842E-03
  28.178  0.897E-03  0.897E-03
  28.188  0.946E-03  0.946E-03
  28.198  0.989E-03  0.989E-03
  28.208  0.102E-02  0.102E-02
  28.218  0.105E-02  0.105E-02
  28.228  0.107E-02  0.107E-02
  28.238  0.107E-02  0.107E-02
  28.248  0.107E-02  0.107E-02
  28.258  0.106E-02  0.106E-02
  28.268  0.104E-02  0.104E-02
  28.278  0.101E-02  0.101E-02
  28.288  0.980E-03  0.980E-03
  28.298  0.940E-03  0.940E-03
  28.308  0.896E-03  0.896E-03
  28.318  0.849E-03  0.849E-03
  28.328  0.800E-03  0.800E-03
  28.338  0.750E-03  0.750E-03
  28.348  0.700E-03  0.700E-03
  28.358  0.652E-03  0.652E-03
  28.368  0.605E-03  0.605E-03
  28.378  0.561E-03  0.561E-03
  28.388  0.520E-03  0.520E-03
  28.398  0.482E-03  0.482E-03
  28.408  0.448E-03  0.448E-03
  28.418  0.418E-03  0.418E-03
  28.428  0.391E-03  0.391E-03
  28.438  0.368E-03  0.368E-03
  28.448  0.349E-03  0.349E-03
  28.458  0.332E-03  0.332E-03
  28.468  0.319E-03  0.319E-03
  28.478  0.309E-03  0.309E-03
  28.488  0.301E-03  0.301E-03
  28.498  0.295E-03  0.295E-03
  28.508  0.291E-03  0.291E-03
  28.518  0.288E-03  0.288E-03
  28.528  0.287E-03  0.287E-03
  28.538  0.286E-03  0.286E-03
  28.548  0.286E-03  0.286E-03
  28.558  0.286E-03  0.286E-03
  28.568  0.285E-03  0.285E-03
  28.578  0.283E-03  0.283E-03
  28.588  0.280E-03  0.280E-03
  28.598  0.276E-03  0.276E-03
  28.608  0.271E-03  0.271E-03
  28.618  0.264E-03  0.264E-03
  28.628  0.256E-03  0.256E-03
  28.638  0.247E-03  0.247E-03
  28.648  0.238E-03  0.238E-03
  28.658  0.227E-03  0.227E-03
  28.668  0.217E-03  0.217E-03
  28.678  0.208E-03  0.208E-03
  28.688  0.199E-03  0.199E-03
  28.698  0.192E-03  0.192E-03
  28.708  0.188E-03  0.188E-03
  28.718  0.185E-03  0.185E-03
  28.728  0.186E-03  0.186E-03
  28.738  0.191E-03  0.191E-03
  28.748  0.199E-03  0.199E-03
  28.758  0.211E-03  0.211E-03
  28.768  0.228E-03  0.228E-03
  28.778  0.248E-03  0.248E-03
  28.788  0.272E-03  0.272E-03
  28.798  0.300E-03  0.300E-03
  28.808  0.331E-03  0.331E-03
  28.818  0.364E-03  0.364E-03
  28.828  0.400E-03  0.400E-03
  28.838  0.436E-03  0.436E-03
  28.848  0.472E-03  0.472E-03
  28.858  0.507E-03  0.507E-03
  28.868  0.541E-03  0.541E-03
  28.878  0.571E-03  0.571E-03
  28.888  0.599E-03  0.599E-03
  28.898  0.622E-03  0.622E-03
  28.908  0.640E-03  0.640E-03
  28.918  0.653E-03  0.653E-03
  28.928  0.660E-03  0.660E-03
  28.938  0.661E-03  0.661E-03
  28.948  0.656E-03  0.656E-03
  28.958  0.645E-03  0.645E-03
  28.968  0.630E-03  0.630E-03
  28.978  0.609E-03  0.609E-03
  28.988  0.584E-03  0.584E-03
  28.998  0.556E-03  0.556E-03
  29.008  0.526E-03  0.526E-03
  29.018  0.493E-03  0.493E-03
  29.028  0.460E-03  0.460E-03
  29.038  0.427E-03  0.427E-03
  29.048  0.395E-03  0.395E-03
  29.058  0.365E-03  0.365E-03
  29.068  0.336E-03  0.336E-03
  29.078  0.311E-03  0.311E-03
  29.088  0.290E-03  0.290E-03
  29.098  0.273E-03  0.273E-03
  29.108  0.260E-03  0.260E-03
  29.118  0.252E-03  0.252E-03
  29.128  0.250E-03  0.250E-03
  29.138  0.254E-03  0.254E-03
  29.148  0.263E-03  0.263E-03
  29.158  0.278E-03  0.278E-03
  29.168  0.299E-03  0.299E-03
  29.178  0.326E-03  0.326E-03
  29.188  0.358E-03  0.358E-03
  29.198  0.397E-03  0.397E-03
  29.208  0.440E-03  0.440E-03
  29.218  0.488E-03  0.488E-03
  29.228  0.540E-03  0.540E-03
  29.238  0.595E-03  0.595E-03
  29.248  0.652E-03  0.652E-03
  29.258  0.710E-03  0.710E-03
  29.268  0.769E-03  0.769E-03
  29.278  0.826E-03  0.826E-03
  29.288  0.881E-03  0.881E-03
  29.298  0.931E-03  0.931E-03
  29.308  0.977E-03  0.977E-03
  29.318  0.102E-02  0.102E-02
  29.328  0.105E-02  0.105E-02
  29.338  0.107E-02  0.107E-02
  29.348  0.109E-02  0.109E-02
  29.358  0.110E-02  0.110E-02
  29.368  0.110E-02  0.110E-02
  29.378  0.108E-02  0.108E-02
  29.388  0.106E-02  0.106E-02
  29.398  0.104E-02  0.104E-02
  29.408  0.100E-02  0.100E-02
  29.418  0.959E-03  0.959E-03
  29.428  0.912E-03  0.912E-03
  29.438  0.861E-03  0.861E-03
  29.448  0.808E-03  0.808E-03
  29.458  0.753E-03  0.753E-03
  29.468  0.699E-03  0.699E-03
  29.478  0.646E-03  0.646E-03
  29.488  0.595E-03  0.595E-03
  29.498  0.547E-03  0.547E-03
  29.508  0.503E-03  0.503E-03
  29.518  0.463E-03  0.463E-03
  29.528  0.428E-03  0.428E-03
  29.538  0.397E-03  0.397E-03
  29.548  0.370E-03  0.370E-03
  29.558  0.347E-03  0.347E-03
  29.568  0.328E-03  0.328E-03
  29.578  0.311E-03  0.311E-03
  29.588  0.298E-03  0.298E-03
  29.598  0.286E-03  0.286E-03
  29.608  0.275E-03  0.275E-03
  29.618  0.265E-03  0.265E-03
  29.628  0.256E-03  0.256E-03
  29.638  0.246E-03  0.246E-03
  29.648  0.236E-03  0.236E-03
  29.658  0.226E-03  0.226E-03
  29.668  0.214E-03  0.214E-03
  29.678  0.202E-03  0.202E-03
  29.688  0.189E-03  0.189E-03
  29.698  0.176E-03  0.176E-03
  29.708  0.162E-03  0.162E-03
  29.718  0.148E-03  0.148E-03
  29.728  0.134E-03  0.134E-03
  29.738  0.120E-03  0.120E-03
  29.748  0.107E-03  0.107E-03
  29.758  0.941E-04  0.941E-04
  29.768  0.819E-04  0.819E-04
  29.778  0.706E-04  0.706E-04
  29.788  0.603E-04  0.603E-04
  29.798  0.509E-04  0.509E-04
  29.808  0.426E-04  0.426E-04
  29.818  0.352E-04  0.352E-04
  29.828  0.288E-04  0.288E-04
  29.838  0.234E-04  0.234E-04
  29.848  0.188E-04  0.188E-04
  29.858  0.149E-04  0.149E-04
  29.868  0.117E-04  0.117E-04
  29.878  0.914E-05  0.914E-05
  29.888  0.707E-05  0.707E-05
  29.898  0.543E-05  0.543E-05
  29.908  0.416E-05  0.416E-05
  29.918  0.321E-05  0.321E-05
  29.928  0.252E-05  0.252E-05
  29.938  0.205E-05  0.205E-05
  29.948  0.177E-05  0.177E-05
  29.958  0.167E-05  0.167E-05
  29.968  0.173E-05  0.173E-05
  29.978  0.196E-05  0.196E-05
  29.988  0.235E-05  0.235E-05
  29.998  0.293E-05  0.293E-05
  30.008  0.372E-05  0.372E-05
  30.018  0.473E-05  0.473E-05
  30.028  0.601E-05  0.601E-05
  30.038  0.758E-05  0.758E-05
  30.048  0.948E-05  0.948E-05
  30.058  0.117E-04  0.117E-04
  30.068  0.144E-04  0.144E-04
  30.078  0.175E-04  0.175E-04
  30.088  0.210E-04  0.210E-04
  30.098  0.249E-04  0.249E-04
  30.108  0.293E-04  0.293E-04
  30.118  0.341E-04  0.341E-04
  30.128  0.392E-04  0.392E-04
  30.138  0.446E-04  0.446E-04
  30.148  0.502E-04  0.502E-04
  30.158  0.559E-04  0.559E-04
  30.168  0.615E-04  0.615E-04
  30.178  0.671E-04  0.671E-04
  30.188  0.723E-04  0.723E-04
  30.198  0.771E-04  0.771E-04
  30.208  0.813E-04  0.813E-04
  30.218  0.849E-04  0.849E-04
  30.228  0.876E-04  0.876E-04
  30.238  0.895E-04  0.895E-04
  30.248  0.904E-04  0.904E-04
  30.258  0.904E-04  0.904E-04
  30.268  0.894E-04  0.894E-04
  30.278  0.874E-04  0.874E-04
  30.288  0.846E-04  0.846E-04
  30.298  0.809E-04  0.809E-04
  30.308  0.766E-04  0.766E-04
  30.318  0.718E-04  0.718E-04
  30.328  0.665E-04  0.665E-04
  30.338  0.610E-04  0.610E-04
  30.348  0.553E-04  0.553E-04
  30.358  0.496E-04  0.496E-04
  30.368  0.440E-04  0.440E-04
  30.378  0.387E-04  0.387E-04
  30.388  0.336E-04  0.336E-04
  30.398  0.288E-04  0.288E-04
  30.408  0.245E-04  0.245E-04
  30.418  0.206E-04  0.206E-04
  30.428  0.172E-04  0.172E-04
  30.438  0.141E-04  0.141E-04
  30.448  0.115E-04  0.115E-04
  30.458  0.928E-05  0.928E-05
  30.468  0.741E-05  0.741E-05
  30.478  0.586E-05  0.586E-05
  30.488  0.460E-05  0.460E-05
  30.498  0.359E-05  0.359E-05
  30.508  0.280E-05  0.280E-05
  30.518  0.218E-05  0.218E-05
  30.528  0.172E-05  0.172E-05
  30.538  0.139E-05  0.139E-05
  30.548  0.116E-05  0.116E-05
  30.558  0.102E-05  0.102E-05
  30.568  0.947E-06  0.947E-06
  30.578  0.937E-06  0.937E-06
  30.588  0.975E-06  0.975E-06
  30.598  0.105E-05  0.105E-05
  30.608  0.117E-05  0.117E-05
  30.618  0.131E-05  0.131E-05
  30.628  0.147E-05  0.147E-05
  30.638  0.164E-05  0.164E-05
  30.648  0.183E-05  0.183E-05
  30.658  0.203E-05  0.203E-05
  30.668  0.222E-05  0.222E-05
  30.678  0.241E-05  0.241E-05
  30.688  0.259E-05  0.259E-05
  30.698  0.276E-05  0.276E-05
  30.708  0.291E-05  0.291E-05
  30.718  0.303E-05  0.303E-05
  30.728  0.312E-05  0.312E-05
  30.738  0.318E-05  0.318E-05
  30.748  0.322E-05  0.322E-05
  30.758  0.322E-05  0.322E-05
  30.768  0.319E-05  0.319E-05
  30.778  0.313E-05  0.313E-05
  30.788  0.306E-05  0.306E-05
  30.798  0.297E-05  0.297E-05
  30.808  0.288E-05  0.288E-05
  30.818  0.280E-05  0.280E-05
  30.828  0.274E-05  0.274E-05
  30.838  0.272E-05  0.272E-05
  30.848  0.276E-05  0.276E-05
  30.858  0.289E-05  0.289E-05
  30.868  0.313E-05  0.313E-05
  30.878  0.353E-05  0.353E-05
  30.888  0.411E-05  0.411E-05
  30.898  0.492E-05  0.492E-05
  30.908  0.601E-05  0.601E-05
  30.918  0.744E-05  0.744E-05
  30.928  0.926E-05  0.926E-05
  30.938  0.115E-04  0.115E-04
  30.948  0.143E-04  0.143E-04
  30.958  0.177E-04  0.177E-04
  30.968  0.217E-04  0.217E-04
  30.978  0.264E-04  0.264E-04
  30.988  0.318E-04  0.318E-04
  30.998  0.379E-04  0.379E-04
  31.008  0.447E-04  0.447E-04
  31.018  0.523E-04  0.523E-04
  31.028  0.604E-04  0.604E-04
  31.038  0.691E-04  0.691E-04
  31.048  0.781E-04  0.781E-04
  31.058  0.875E-04  0.875E-04
  31.068  0.969E-04  0.969E-04
  31.078  0.106E-03  0.106E-03
  31.088  0.115E-03  0.115E-03
  31.098  0.123E-03  0.123E-03
  31.108  0.131E-03  0.131E-03
  31.118  0.137E-03  0.137E-03
  31.128  0.142E-03  0.142E-03
  31.138  0.146E-03  0.146E-03
  31.148  0.149E-03  0.149E-03
  31.158  0.149E-03  0.149E-03
  31.168  0.148E-03  0.148E-03
  31.178  0.146E-03  0.146E-03
  31.188  0.142E-03  0.142E-03
  31.198  0.137E-03  0.137E-03
  31.208  0.130E-03  0.130E-03
  31.218  0.122E-03  0.122E-03
  31.228  0.114E-03  0.114E-03
  31.238  0.105E-03  0.105E-03
  31.248  0.959E-04  0.959E-04
  31.258  0.865E-04  0.865E-04
  31.268  0.771E-04  0.771E-04
  31.278  0.681E-04  0.681E-04
  31.288  0.595E-04  0.595E-04
  31.298  0.514E-04  0.514E-04
  31.308  0.439E-04  0.439E-04
  31.318  0.371E-04  0.371E-04
  31.328  0.310E-04  0.310E-04
  31.338  0.257E-04  0.257E-04
  31.348  0.210E-04  0.210E-04
  31.358  0.170E-04  0.170E-04
  31.368  0.136E-04  0.136E-04
  31.378  0.108E-04  0.108E-04
  31.388  0.845E-05  0.845E-05
  31.398  0.655E-05  0.655E-05
  31.408  0.503E-05  0.503E-05
  31.418  0.381E-05  0.381E-05
  31.428  0.286E-05  0.286E-05
  31.438  0.213E-05  0.213E-05
  31.448  0.156E-05  0.156E-05
  31.458  0.113E-05  0.113E-05
  31.468  0.816E-06  0.816E-06
  31.478  0.580E-06  0.580E-06
  31.488  0.408E-06  0.408E-06
  31.498  0.284E-06  0.284E-06
  31.508  0.196E-06  0.196E-06
  31.518  0.133E-06  0.133E-06
  31.528  0.897E-07  0.897E-07
  31.538  0.598E-07  0.598E-07
  31.548  0.394E-07  0.394E-07
  31.558  0.257E-07  0.257E-07
  31.568  0.166E-07  0.166E-07
