# Im(k), E-Ef
# k-point    1
   -1.2267   10.0000
   -1.0413   10.0000
   -1.4261   10.0000
   -1.4261   10.0000
   -2.1887   10.0000
   -2.2417   10.0000
   -2.4920   10.0000
   -2.7348   10.0000
   -2.6126   10.0000
   -2.7826   10.0000
   -2.7348   10.0000
   -2.7826   10.0000
   -2.7826   10.0000
   -2.4920   10.0000
   -2.7826   10.0000
   -2.6126   10.0000
   -2.1887   10.0000
   -2.2417   10.0000
   -1.2267   10.0000
   -1.4261   10.0000
   -1.4261   10.0000
   -1.0413   10.0000
   -1.2376    9.6000
   -1.0616    9.6000
   -1.4507    9.6000
   -1.4507    9.6000
   -2.1980    9.6000
   -2.2511    9.6000
   -2.5008    9.6000
   -2.7424    9.6000
   -2.6205    9.6000
   -2.7901    9.6000
   -2.7424    9.6000
   -2.7901    9.6000
   -2.7901    9.6000
   -2.5008    9.6000
   -2.7901    9.6000
   -2.6205    9.6000
   -2.1980    9.6000
   -2.2511    9.6000
   -1.2376    9.6000
   -1.4507    9.6000
   -1.4507    9.6000
   -1.0616    9.6000
   -0.0833    9.2000
   -1.2485    9.2000
   -1.0815    9.2000
   -1.4751    9.2000
   -1.4751    9.2000
   -2.2072    9.2000
   -2.2604    9.2000
   -2.5095    9.2000
   -2.7500    9.2000
   -2.7976    9.2000
   -2.6285    9.2000
   -2.7976    9.2000
   -2.7500    9.2000
   -2.5095    9.2000
   -2.7976    9.2000
   -2.6285    9.2000
   -2.7976    9.2000
   -2.2072    9.2000
   -2.2604    9.2000
   -1.2485    9.2000
   -1.4751    9.2000
   -1.4751    9.2000
   -1.0815    9.2000
   -0.0833    9.2000
   -0.2324    8.8000
   -1.2593    8.8000
   -1.1010    8.8000
   -1.4996    8.8000
   -1.4996    8.8000
   -2.2164    8.8000
   -2.2697    8.8000
   -2.5183    8.8000
   -2.7576    8.8000
   -2.8051    8.8000
   -2.6364    8.8000
   -2.8051    8.8000
   -2.7576    8.8000
   -2.5183    8.8000
   -2.8051    8.8000
   -2.6364    8.8000
   -2.8051    8.8000
   -2.2164    8.8000
   -2.2697    8.8000
   -1.2593    8.8000
   -1.4996    8.8000
   -1.4996    8.8000
   -1.1010    8.8000
   -0.2324    8.8000
   -0.3159    8.4000
   -1.2701    8.4000
   -1.1202    8.4000
   -1.5240    8.4000
   -1.5240    8.4000
   -2.2257    8.4000
   -2.2790    8.4000
   -2.5270    8.4000
   -2.7651    8.4000
   -2.8126    8.4000
   -2.6444    8.4000
   -2.8126    8.4000
   -2.7651    8.4000
   -2.5270    8.4000
   -2.8126    8.4000
   -2.6444    8.4000
   -2.8126    8.4000
   -2.2257    8.4000
   -2.2790    8.4000
   -1.2701    8.4000
   -1.5240    8.4000
   -1.5240    8.4000
   -1.1202    8.4000
   -0.3159    8.4000
   -0.3802    8.0000
   -1.2809    8.0000
   -1.1390    8.0000
   -1.5485    8.0000
   -1.5485    8.0000
   -2.2349    8.0000
   -2.2883    8.0000
   -2.5357    8.0000
   -2.7726    8.0000
   -2.8201    8.0000
   -2.6523    8.0000
   -2.8201    8.0000
   -2.7726    8.0000
   -2.5357    8.0000
   -2.8201    8.0000
   -2.6523    8.0000
   -2.8201    8.0000
   -2.2349    8.0000
   -2.2883    8.0000
   -1.2809    8.0000
   -1.5485    8.0000
   -1.5485    8.0000
   -1.1390    8.0000
   -0.3802    8.0000
   -0.4338    7.6000
   -1.2916    7.6000
   -1.1576    7.6000
   -1.5729    7.6000
   -1.5729    7.6000
   -2.2441    7.6000
   -2.2975    7.6000
   -2.5445    7.6000
   -2.7801    7.6000
   -2.8275    7.6000
   -2.6601    7.6000
   -2.8275    7.6000
   -2.7801    7.6000
   -2.5445    7.6000
   -2.8275    7.6000
   -2.6601    7.6000
   -2.8275    7.6000
   -2.2441    7.6000
   -2.2975    7.6000
   -1.2916    7.6000
   -1.5729    7.6000
   -1.5729    7.6000
   -1.1576    7.6000
   -0.4338    7.6000
   -0.4805    7.2000
   -1.3022    7.2000
   -1.1758    7.2000
   -1.5973    7.2000
   -1.5973    7.2000
   -2.2533    7.2000
   -2.3066    7.2000
   -2.5532    7.2000
   -2.7876    7.2000
   -2.8349    7.2000
   -2.6680    7.2000
   -2.8349    7.2000
   -2.7876    7.2000
   -2.5532    7.2000
   -2.8349    7.2000
   -2.6680    7.2000
   -2.8349    7.2000
   -2.2533    7.2000
   -2.3066    7.2000
   -1.3022    7.2000
   -1.5973    7.2000
   -1.5973    7.2000
   -1.1758    7.2000
   -0.4805    7.2000
   -0.5222    6.8000
   -1.3128    6.8000
   -1.1937    6.8000
   -1.6218    6.8000
   -1.6218    6.8000
   -2.2624    6.8000
   -2.3158    6.8000
   -2.5619    6.8000
   -2.7951    6.8000
   -2.8423    6.8000
   -2.6758    6.8000
   -2.8423    6.8000
   -2.7951    6.8000
   -2.5619    6.8000
   -2.8423    6.8000
   -2.6758    6.8000
   -2.8423    6.8000
   -2.2624    6.8000
   -2.3158    6.8000
   -1.3128    6.8000
   -1.6218    6.8000
   -1.6218    6.8000
   -1.1937    6.8000
   -0.5222    6.8000
   -0.5601    6.4000
   -1.3233    6.4000
   -1.2114    6.4000
   -1.6462    6.4000
   -1.6462    6.4000
   -2.2716    6.4000
   -2.3248    6.4000
   -2.5706    6.4000
   -2.8025    6.4000
   -2.8497    6.4000
   -2.6836    6.4000
   -2.8497    6.4000
   -2.8025    6.4000
   -2.5706    6.4000
   -2.8497    6.4000
   -2.6836    6.4000
   -2.8497    6.4000
   -2.2716    6.4000
   -2.3248    6.4000
   -1.3233    6.4000
   -1.6462    6.4000
   -1.6462    6.4000
   -1.2114    6.4000
   -0.5601    6.4000
   -0.5949    6.0000
   -1.3338    6.0000
   -1.2288    6.0000
   -1.6707    6.0000
   -1.6707    6.0000
   -2.2807    6.0000
   -2.3339    6.0000
   -2.5792    6.0000
   -2.8099    6.0000
   -2.8571    6.0000
   -2.6914    6.0000
   -2.8571    6.0000
   -2.8099    6.0000
   -2.5792    6.0000
   -2.8571    6.0000
   -2.6914    6.0000
   -2.8571    6.0000
   -2.2807    6.0000
   -2.3339    6.0000
   -1.3338    6.0000
   -1.6707    6.0000
   -1.6707    6.0000
   -1.2288    6.0000
   -0.5949    6.0000
   -0.6272    5.6000
   -1.3443    5.6000
   -1.2460    5.6000
   -1.6952    5.6000
   -1.6952    5.6000
   -2.2898    5.6000
   -2.3429    5.6000
   -2.5879    5.6000
   -2.8174    5.6000
   -2.8644    5.6000
   -2.6991    5.6000
   -2.8644    5.6000
   -2.8174    5.6000
   -2.5879    5.6000
   -2.8644    5.6000
   -2.6991    5.6000
   -2.8644    5.6000
   -2.2898    5.6000
   -2.3429    5.6000
   -1.3443    5.6000
   -1.6952    5.6000
   -1.6952    5.6000
   -1.2460    5.6000
   -0.6272    5.6000
   -0.6574    5.2000
   -0.2265    5.2000
   -0.2265    5.2000
   -1.3547    5.2000
   -1.2629    5.2000
   -1.7197    5.2000
   -1.7197    5.2000
   -2.2989    5.2000
   -2.3519    5.2000
   -2.5965    5.2000
   -2.8247    5.2000
   -2.8717    5.2000
   -2.8717    5.2000
   -2.5965    5.2000
   -2.7069    5.2000
   -2.7069    5.2000
   -2.8247    5.2000
   -2.2989    5.2000
   -2.8717    5.2000
   -2.3519    5.2000
   -2.8717    5.2000
   -1.3547    5.2000
   -1.7197    5.2000
   -1.7197    5.2000
   -1.2629    5.2000
   -0.6574    5.2000
   -0.2265    5.2000
   -0.2265    5.2000
   -0.1487    4.8000
   -0.6857    4.8000
   -0.3223    4.8000
   -0.3223    4.8000
   -1.3650    4.8000
   -1.2796    4.8000
   -1.7441    4.8000
   -1.7441    4.8000
   -2.3080    4.8000
   -2.3609    4.8000
   -2.6052    4.8000
   -2.8321    4.8000
   -2.8790    4.8000
   -2.8790    4.8000
   -2.6052    4.8000
   -2.7146    4.8000
   -2.7146    4.8000
   -2.3080    4.8000
   -2.8321    4.8000
   -2.3609    4.8000
   -2.8790    4.8000
   -2.8790    4.8000
   -1.3650    4.8000
   -1.7441    4.8000
   -1.7441    4.8000
   -1.2796    4.8000
   -0.6857    4.8000
   -0.1487    4.8000
   -0.3223    4.8000
   -0.3223    4.8000
   -0.2549    4.4000
   -0.7125    4.4000
   -0.3958    4.4000
   -0.3958    4.4000
   -1.3753    4.4000
   -1.2961    4.4000
   -1.7685    4.4000
   -1.7685    4.4000
   -2.3170    4.4000
   -2.3698    4.4000
   -2.6138    4.4000
   -2.8395    4.4000
   -2.8863    4.4000
   -2.8863    4.4000
   -2.6138    4.4000
   -2.7223    4.4000
   -2.7223    4.4000
   -2.3170    4.4000
   -2.8395    4.4000
   -2.3698    4.4000
   -2.8863    4.4000
   -2.8863    4.4000
   -1.3753    4.4000
   -1.7685    4.4000
   -1.7685    4.4000
   -1.2961    4.4000
   -0.7125    4.4000
   -0.2549    4.4000
   -0.3958    4.4000
   -0.3958    4.4000
   -0.3283    4.0000
   -0.7380    4.0000
   -0.4579    4.0000
   -0.4579    4.0000
   -1.3856    4.0000
   -1.3124    4.0000
   -1.7929    4.0000
   -1.7929    4.0000
   -2.3261    4.0000
   -2.3787    4.0000
   -2.6224    4.0000
   -2.8468    4.0000
   -2.8936    4.0000
   -2.8936    4.0000
   -2.6224    4.0000
   -2.7299    4.0000
   -2.7299    4.0000
   -2.3261    4.0000
   -2.8468    4.0000
   -2.3787    4.0000
   -2.8936    4.0000
   -2.8936    4.0000
   -1.3856    4.0000
   -1.7929    4.0000
   -1.7929    4.0000
   -1.3124    4.0000
   -0.7380    4.0000
   -0.3283    4.0000
   -0.4579    4.0000
   -0.4579    4.0000
   -0.3879    3.6000
   -0.7622    3.6000
   -0.5127    3.6000
   -0.5127    3.6000
   -1.3958    3.6000
   -1.3284    3.6000
   -1.8171    3.6000
   -1.8171    3.6000
   -2.3351    3.6000
   -2.6310    3.6000
   -2.3875    3.6000
   -2.8541    3.6000
   -2.9008    3.6000
   -2.9008    3.6000
   -2.6310    3.6000
   -2.7376    3.6000
   -2.7376    3.6000
   -2.3351    3.6000
   -2.8541    3.6000
   -2.3875    3.6000
   -2.9008    3.6000
   -2.9008    3.6000
   -1.3958    3.6000
   -1.8171    3.6000
   -1.8171    3.6000
   -1.3284    3.6000
   -0.7622    3.6000
   -0.3879    3.6000
   -0.5127    3.6000
   -0.5127    3.6000
   -0.4395    3.2000
   -0.7853    3.2000
   -0.5623    3.2000
   -0.5623    3.2000
   -1.4060    3.2000
   -1.3443    3.2000
   -1.8412    3.2000
   -1.8412    3.2000
   -2.3441    3.2000
   -2.6396    3.2000
   -2.3963    3.2000
   -2.8614    3.2000
   -2.9080    3.2000
   -2.9080    3.2000
   -2.6396    3.2000
   -2.7452    3.2000
   -2.7452    3.2000
   -2.3441    3.2000
   -2.8614    3.2000
   -2.3963    3.2000
   -2.9080    3.2000
   -2.9080    3.2000
   -1.4060    3.2000
   -1.8412    3.2000
   -1.8412    3.2000
   -1.3443    3.2000
   -0.7853    3.2000
   -0.4395    3.2000
   -0.5623    3.2000
   -0.5623    3.2000
   -0.4856    2.8000
   -0.8075    2.8000
   -0.6082    2.8000
   -0.6082    2.8000
   -1.4161    2.8000
   -1.3600    2.8000
   -1.8651    2.8000
   -1.8651    2.8000
   -2.3530    2.8000
   -2.6482    2.8000
   -2.4051    2.8000
   -2.8687    2.8000
   -2.9152    2.8000
   -2.9152    2.8000
   -2.6482    2.8000
   -2.7528    2.8000
   -2.7528    2.8000
   -2.3530    2.8000
   -2.8687    2.8000
   -2.4051    2.8000
   -2.9152    2.8000
   -2.9152    2.8000
   -1.4161    2.8000
   -1.8651    2.8000
   -1.8651    2.8000
   -1.3600    2.8000
   -0.8075    2.8000
   -0.4856    2.8000
   -0.6082    2.8000
   -0.6082    2.8000
   -0.5276    2.4000
   -0.8288    2.4000
   -0.6510    2.4000
   -0.6510    2.4000
   -1.4262    2.4000
   -1.3755    2.4000
   -1.8887    2.4000
   -1.8887    2.4000
   -2.3620    2.4000
   -2.6567    2.4000
   -2.4138    2.4000
   -2.8759    2.4000
   -2.9224    2.4000
   -2.9224    2.4000
   -2.6567    2.4000
   -2.7604    2.4000
   -2.7604    2.4000
   -2.3620    2.4000
   -2.8759    2.4000
   -2.4138    2.4000
   -2.9224    2.4000
   -2.9224    2.4000
   -1.8887    2.4000
   -1.8887    2.4000
   -1.4262    2.4000
   -1.3755    2.4000
   -0.8288    2.4000
   -0.5276    2.4000
   -0.6510    2.4000
   -0.6510    2.4000
   -0.5665    2.0000
   -0.8493    2.0000
   -0.6913    2.0000
   -0.6913    2.0000
   -1.4362    2.0000
   -1.3908    2.0000
   -1.9121    2.0000
   -1.9121    2.0000
   -2.3709    2.0000
   -2.8832    2.0000
   -2.6652    2.0000
   -2.9296    2.0000
   -2.4226    2.0000
   -2.9296    2.0000
   -2.6652    2.0000
   -2.7680    2.0000
   -2.7680    2.0000
   -2.3709    2.0000
   -2.8832    2.0000
   -2.4226    2.0000
   -2.9296    2.0000
   -2.9296    2.0000
   -1.9121    2.0000
   -1.9121    2.0000
   -1.4362    2.0000
   -1.3908    2.0000
   -0.8493    2.0000
   -0.5665    2.0000
   -0.6913    2.0000
   -0.6913    2.0000
   -0.6029    1.6000
   -0.8690    1.6000
   -0.7297    1.6000
   -0.7297    1.6000
   -1.4462    1.6000
   -1.4059    1.6000
   -1.9351    1.6000
   -1.9351    1.6000
   -2.3798    1.6000
   -2.8904    1.6000
   -2.6738    1.6000
   -2.9367    1.6000
   -2.4312    1.6000
   -2.9367    1.6000
   -2.6738    1.6000
   -2.7755    1.6000
   -2.7755    1.6000
   -2.3798    1.6000
   -2.8904    1.6000
   -2.4312    1.6000
   -2.9367    1.6000
   -2.9367    1.6000
   -1.9351    1.6000
   -1.9351    1.6000
   -1.4462    1.6000
   -1.4059    1.6000
   -0.8690    1.6000
   -0.6029    1.6000
   -0.7297    1.6000
   -0.7297    1.6000
   -0.6371    1.2000
   -0.8881    1.2000
   -0.7663    1.2000
   -0.7663    1.2000
   -1.4562    1.2000
   -1.4209    1.2000
   -1.9578    1.2000
   -1.9578    1.2000
   -2.3887    1.2000
   -2.8976    1.2000
   -2.6823    1.2000
   -2.9439    1.2000
   -2.4399    1.2000
   -2.9439    1.2000
   -2.6823    1.2000
   -2.7830    1.2000
   -2.7830    1.2000
   -2.3887    1.2000
   -2.8976    1.2000
   -2.4399    1.2000
   -2.9439    1.2000
   -2.9439    1.2000
   -1.9578    1.2000
   -1.9578    1.2000
   -1.4562    1.2000
   -1.4209    1.2000
   -0.8881    1.2000
   -0.6371    1.2000
   -0.7663    1.2000
   -0.7663    1.2000
   -0.6696    0.8000
   -0.9065    0.8000
   -0.8015    0.8000
   -0.8015    0.8000
   -1.4661    0.8000
   -1.4357    0.8000
   -1.9801    0.8000
   -1.9801    0.8000
   -2.3975    0.8000
   -2.9048    0.8000
   -2.9510    0.8000
   -2.9510    0.8000
   -2.6908    0.8000
   -2.6908    0.8000
   -2.4485    0.8000
   -2.7905    0.8000
   -2.7905    0.8000
   -2.3975    0.8000
   -2.9048    0.8000
   -2.4485    0.8000
   -2.9510    0.8000
   -2.9510    0.8000
   -1.9801    0.8000
   -1.9801    0.8000
   -1.4661    0.8000
   -1.4357    0.8000
   -0.9065    0.8000
   -0.6696    0.8000
   -0.8015    0.8000
   -0.8015    0.8000
   -0.7006    0.4000
   -0.9244    0.4000
   -0.8354    0.4000
   -0.8354    0.4000
   -1.4760    0.4000
   -1.4504    0.4000
   -2.0019    0.4000
   -2.0019    0.4000
   -2.4064    0.4000
   -2.9119    0.4000
   -2.9581    0.4000
   -2.9581    0.4000
   -2.6992    0.4000
   -2.6992    0.4000
   -2.4571    0.4000
   -2.7980    0.4000
   -2.7980    0.4000
   -2.4064    0.4000
   -2.9119    0.4000
   -2.4571    0.4000
   -2.9581    0.4000
   -2.9581    0.4000
   -2.0019    0.4000
   -2.0019    0.4000
   -1.4760    0.4000
   -1.4504    0.4000
   -0.9244    0.4000
   -0.7006    0.4000
   -0.8354    0.4000
   -0.8354    0.4000
   -0.7302    0.0000
   -0.9417    0.0000
   -0.8682    0.0000
   -0.8682    0.0000
   -1.4858    0.0000
   -1.4649    0.0000
   -2.0232    0.0000
   -2.0232    0.0000
   -2.4152    0.0000
   -2.9191    0.0000
   -2.9652    0.0000
   -2.9651    0.0000
   -2.7077    0.0000
   -2.7077    0.0000
   -2.4657    0.0000
   -2.8055    0.0000
   -2.8055    0.0000
   -2.4152    0.0000
   -2.9191    0.0000
   -2.4657    0.0000
   -2.9652    0.0000
   -2.9652    0.0000
   -2.0232    0.0000
   -2.0232    0.0000
   -1.4858    0.0000
   -1.4649    0.0000
   -0.9417    0.0000
   -0.7302    0.0000
   -0.8682    0.0000
   -0.8682    0.0000
   -0.9585   -0.4000
   -0.7587   -0.4000
   -0.9000   -0.4000
   -1.4956   -0.4000
   -0.9000   -0.4000
   -1.4793   -0.4000
   -2.0441   -0.4000
   -2.0441   -0.4000
   -2.4240   -0.4000
   -2.9262   -0.4000
   -2.9722   -0.4000
   -2.9722   -0.4000
   -2.7161   -0.4000
   -2.7161   -0.4000
   -2.4742   -0.4000
   -2.8129   -0.4000
   -2.8129   -0.4000
   -2.4240   -0.4000
   -2.9262   -0.4000
   -2.4742   -0.4000
   -2.9722   -0.4000
   -2.9722   -0.4000
   -2.0441   -0.4000
   -2.0441   -0.4000
   -1.4956   -0.4000
   -1.4793   -0.4000
   -0.9585   -0.4000
   -0.7587   -0.4000
   -0.9000   -0.4000
   -0.9000   -0.4000
   -0.9749   -0.8000
   -0.7861   -0.8000
   -0.9310   -0.8000
   -0.9310   -0.8000
   -1.5054   -0.8000
   -1.4935   -0.8000
   -2.0644   -0.8000
   -2.0644   -0.8000
   -2.4327   -0.8000
   -2.9333   -0.8000
   -2.9793   -0.8000
   -2.9793   -0.8000
   -2.7246   -0.8000
   -2.7246   -0.8000
   -2.4827   -0.8000
   -2.8204   -0.8000
   -2.8204   -0.8000
   -2.4327   -0.8000
   -2.9333   -0.8000
   -2.4827   -0.8000
   -2.9793   -0.8000
   -2.9793   -0.8000
   -2.0644   -0.8000
   -2.0644   -0.8000
   -1.5054   -0.8000
   -1.4935   -0.8000
   -0.9749   -0.8000
   -0.7861   -0.8000
   -0.9310   -0.8000
   -0.9310   -0.8000
   -0.9909   -1.2000
   -0.8126   -1.2000
   -0.9612   -1.2000
   -1.5151   -1.2000
   -0.9612   -1.2000
   -1.5076   -1.2000
   -2.0842   -1.2000
   -2.0842   -1.2000
   -2.4415   -1.2000
   -2.9404   -1.2000
   -2.9863   -1.2000
   -2.9863   -1.2000
   -2.7330   -1.2000
   -2.7330   -1.2000
   -2.4912   -1.2000
   -2.8278   -1.2000
   -2.8278   -1.2000
   -2.4415   -1.2000
   -2.9404   -1.2000
   -2.4912   -1.2000
   -2.9863   -1.2000
   -2.9863   -1.2000
   -2.0842   -1.2000
   -2.0842   -1.2000
   -1.5151   -1.2000
   -1.5076   -1.2000
   -0.9909   -1.2000
   -0.8126   -1.2000
   -0.9612   -1.2000
   -0.9612   -1.2000
   -1.0064   -1.6000
   -0.8382   -1.6000
   -0.9908   -1.6000
   -0.9908   -1.6000
   -1.5248   -1.6000
   -1.5216   -1.6000
   -2.1035   -1.6000
   -2.1035   -1.6000
   -2.4502   -1.6000
   -2.9475   -1.6000
   -2.9933   -1.6000
   -2.9933   -1.6000
   -2.7414   -1.6000
   -2.7414   -1.6000
   -2.4996   -1.6000
   -2.8351   -1.6000
   -2.8351   -1.6000
   -2.4502   -1.6000
   -2.9475   -1.6000
   -2.4996   -1.6000
   -2.9933   -1.6000
   -2.9933   -1.6000
   -2.1035   -1.6000
   -2.1035   -1.6000
   -1.5248   -1.6000
   -1.5216   -1.6000
   -1.0064   -1.6000
   -0.8382   -1.6000
   -0.9908   -1.6000
   -0.9908   -1.6000
   -0.0263   -2.0000
   -0.8631   -2.0000
   -1.0216   -2.0000
   -1.0198   -2.0000
   -1.5345   -2.0000
   -1.0198   -2.0000
   -1.5354   -2.0000
   -2.1222   -2.0000
   -2.1222   -2.0000
   -2.4589   -2.0000
   -2.9546   -2.0000
   -2.7498   -2.0000
   -2.7498   -2.0000
   -2.8425   -2.0000
   -2.5080   -2.0000
   -2.4589   -2.0000
   -2.8425   -2.0000
   -2.5080   -2.0000
   -2.9546   -2.0000
   -2.1222   -2.0000
   -2.1222   -2.0000
   -1.5345   -2.0000
   -1.5354   -2.0000
   -1.0216   -2.0000
   -0.8631   -2.0000
   -1.0198   -2.0000
   -1.0198   -2.0000
   -0.0263   -2.0000
   -0.0376   -2.4000
   -1.0364   -2.4000
   -0.8873   -2.4000
   -1.5441   -2.4000
   -1.0482   -2.4000
   -1.0482   -2.4000
   -1.5491   -2.4000
   -2.1405   -2.4000
   -2.1405   -2.4000
   -2.4675   -2.4000
   -2.9616   -2.4000
   -2.7582   -2.4000
   -2.7582   -2.4000
   -2.8499   -2.4000
   -2.5164   -2.4000
   -2.4675   -2.4000
   -2.8499   -2.4000
   -2.5164   -2.4000
   -2.9616   -2.4000
   -2.1405   -2.4000
   -2.1405   -2.4000
   -1.5441   -2.4000
   -1.5491   -2.4000
   -1.0364   -2.4000
   -0.8873   -2.4000
   -1.0482   -2.4000
   -1.0482   -2.4000
   -0.0376   -2.4000
   -0.0334   -2.8000
   -1.0508   -2.8000
   -0.9108   -2.8000
   -1.5536   -2.8000
   -1.0762   -2.8000
   -1.0762   -2.8000
   -1.5627   -2.8000
   -2.1583   -2.8000
   -2.1583   -2.8000
   -2.4762   -2.8000
   -2.9686   -2.8000
   -2.7665   -2.8000
   -2.7665   -2.8000
   -2.8572   -2.8000
   -2.5247   -2.8000
   -2.4762   -2.8000
   -2.8572   -2.8000
   -2.5247   -2.8000
   -2.9686   -2.8000
   -2.1583   -2.8000
   -2.1583   -2.8000
   -1.5536   -2.8000
   -1.5627   -2.8000
   -1.0508   -2.8000
   -0.9108   -2.8000
   -1.0762   -2.8000
   -1.0762   -2.8000
   -0.0334   -2.8000
   -1.0650   -3.2000
   -0.9337   -3.2000
   -1.5632   -3.2000
   -1.1038   -3.2000
   -1.1038   -3.2000
   -1.5762   -3.2000
   -2.1756   -3.2000
   -2.1756   -3.2000
   -2.4848   -3.2000
   -2.9757   -3.2000
   -2.7749   -3.2000
   -2.7749   -3.2000
   -2.5331   -3.2000
   -2.8645   -3.2000
   -2.8645   -3.2000
   -2.4848   -3.2000
   -2.9757   -3.2000
   -2.5331   -3.2000
   -2.1756   -3.2000
   -2.1756   -3.2000
   -1.5632   -3.2000
   -1.5762   -3.2000
   -1.0650   -3.2000
   -0.9337   -3.2000
   -1.1038   -3.2000
   -1.1038   -3.2000
   -1.0788   -3.6000
   -0.9561   -3.6000
   -1.5727   -3.6000
   -1.1311   -3.6000
   -1.1311   -3.6000
   -1.5895   -3.6000
   -2.4934   -3.6000
   -2.1924   -3.6000
   -2.1924   -3.6000
   -2.9827   -3.6000
   -2.7832   -3.6000
   -2.7832   -3.6000
   -2.5414   -3.6000
   -2.8718   -3.6000
   -2.8718   -3.6000
   -2.4934   -3.6000
   -2.9827   -3.6000
   -2.5414   -3.6000
   -2.1924   -3.6000
   -2.1924   -3.6000
   -1.5727   -3.6000
   -1.5895   -3.6000
   -1.0788   -3.6000
   -0.9561   -3.6000
   -1.1311   -3.6000
   -1.1311   -3.6000
   -1.0924   -4.0000
   -0.9779   -4.0000
   -1.5822   -4.0000
   -1.1580   -4.0000
   -1.1580   -4.0000
   -1.6028   -4.0000
   -2.5019   -4.0000
   -2.9896   -4.0000
   -2.2089   -4.0000
   -2.2089   -4.0000
   -2.7915   -4.0000
   -2.7915   -4.0000
   -2.5496   -4.0000
   -2.8790   -4.0000
   -2.8790   -4.0000
   -2.5019   -4.0000
   -2.9896   -4.0000
   -2.5496   -4.0000
   -2.2089   -4.0000
   -2.2089   -4.0000
   -1.5822   -4.0000
   -1.6028   -4.0000
   -1.0924   -4.0000
   -0.9779   -4.0000
   -1.1580   -4.0000
   -1.1580   -4.0000
   -1.1057   -4.4000
   -0.9993   -4.4000
   -1.5916   -4.4000
   -1.1847   -4.4000
   -1.1847   -4.4000
   -1.6159   -4.4000
   -2.5105   -4.4000
   -2.9966   -4.4000
   -2.2249   -4.4000
   -2.2249   -4.4000
   -2.7998   -4.4000
   -2.7998   -4.4000
   -2.5579   -4.4000
   -2.8863   -4.4000
   -2.8863   -4.4000
   -2.5105   -4.4000
   -2.9966   -4.4000
   -2.5579   -4.4000
   -2.2249   -4.4000
   -2.2249   -4.4000
   -1.5916   -4.4000
   -1.6159   -4.4000
   -1.1057   -4.4000
   -0.9993   -4.4000
   -1.1847   -4.4000
   -1.1847   -4.4000
   -1.1187   -4.8000
   -1.0202   -4.8000
   -1.6010   -4.8000
   -1.2113   -4.8000
   -1.2113   -4.8000
   -1.6289   -4.8000
   -2.5190   -4.8000
   -2.2408   -4.8000
   -2.2408   -4.8000
   -2.8081   -4.8000
   -2.8081   -4.8000
   -2.5661   -4.8000
   -2.8935   -4.8000
   -2.8935   -4.8000
   -2.5190   -4.8000
   -2.5661   -4.8000
   -2.2408   -4.8000
   -2.2408   -4.8000
   -1.6010   -4.8000
   -1.6289   -4.8000
   -1.1187   -4.8000
   -1.0202   -4.8000
   -1.2113   -4.8000
   -1.2113   -4.8000
   -1.1315   -5.2000
   -1.0406   -5.2000
   -1.6104   -5.2000
   -1.2377   -5.2000
   -1.2377   -5.2000
   -1.6419   -5.2000
   -2.1765   -5.2000
   -2.5275   -5.2000
   -2.1765   -5.2000
   -2.8164   -5.2000
   -2.5743   -5.2000
   -2.2694   -5.2000
   -2.2694   -5.2000
   -2.2522   -5.2000
   -2.8164   -5.2000
   -2.2522   -5.2000
   -2.9008   -5.2000
   -2.9008   -5.2000
   -2.5275   -5.2000
   -2.5743   -5.2000
   -2.2694   -5.2000
   -2.2694   -5.2000
   -2.2522   -5.2000
   -2.2522   -5.2000
   -2.1765   -5.2000
   -2.1765   -5.2000
   -1.6104   -5.2000
   -1.6419   -5.2000
   -1.1315   -5.2000
   -1.0406   -5.2000
   -1.2377   -5.2000
   -1.2377   -5.2000
   -1.1441   -5.6000
   -1.0607   -5.6000
   -1.6197   -5.6000
   -1.2640   -5.6000
   -1.2640   -5.6000
   -1.6547   -5.6000
   -2.1244   -5.6000
   -2.1244   -5.6000
   -2.5359   -5.6000
   -2.2697   -5.6000
   -2.2697   -5.6000
   -2.3203   -5.6000
   -2.3203   -5.6000
   -2.8246   -5.6000
   -2.8246   -5.6000
   -2.5824   -5.6000
   -2.9080   -5.6000
   -2.9080   -5.6000
   -2.5359   -5.6000
   -2.5824   -5.6000
   -2.3203   -5.6000
   -2.3203   -5.6000
   -2.2697   -5.6000
   -2.2697   -5.6000
   -2.1244   -5.6000
   -2.1244   -5.6000
   -1.6197   -5.6000
   -1.6547   -5.6000
   -1.1441   -5.6000
   -1.0607   -5.6000
   -1.2640   -5.6000
   -1.2640   -5.6000
   -1.1564   -6.0000
   -1.0804   -6.0000
   -1.6290   -6.0000
   -1.2904   -6.0000
   -1.2904   -6.0000
   -1.6674   -6.0000
   -2.0921   -6.0000
   -2.0921   -6.0000
   -2.5444   -6.0000
   -2.2845   -6.0000
   -2.2845   -6.0000
   -2.3540   -6.0000
   -2.3540   -6.0000
   -2.8329   -6.0000
   -2.8329   -6.0000
   -2.5906   -6.0000
   -2.9151   -6.0000
   -2.9151   -6.0000
   -2.5444   -6.0000
   -2.5906   -6.0000
   -2.3540   -6.0000
   -2.3540   -6.0000
   -2.2845   -6.0000
   -2.2845   -6.0000
   -2.0921   -6.0000
   -2.0921   -6.0000
   -1.6290   -6.0000
   -1.6674   -6.0000
   -1.1564   -6.0000
   -1.0804   -6.0000
   -1.2904   -6.0000
   -1.2904   -6.0000
   -1.1686   -6.4000
   -1.0998   -6.4000
   -1.6383   -6.4000
   -1.3167   -6.4000
   -1.3167   -6.4000
   -1.6800   -6.4000
   -2.0663   -6.4000
   -2.0663   -6.4000
   -2.5528   -6.4000
   -2.2987   -6.4000
   -2.2987   -6.4000
   -2.8411   -6.4000
   -2.5987   -6.4000
   -2.3811   -6.4000
   -2.8411   -6.4000
   -2.3811   -6.4000
   -2.9223   -6.4000
   -2.9223   -6.4000
   -2.5528   -6.4000
   -2.5987   -6.4000
   -2.3811   -6.4000
   -2.3811   -6.4000
   -2.2987   -6.4000
   -2.2987   -6.4000
   -2.0663   -6.4000
   -2.0663   -6.4000
   -1.6383   -6.4000
   -1.6800   -6.4000
   -1.1686   -6.4000
   -1.0998   -6.4000
   -1.3167   -6.4000
   -1.3167   -6.4000
   -1.1805   -6.8000
   -1.1188   -6.8000
   -1.6475   -6.8000
   -1.3432   -6.8000
   -1.3432   -6.8000
   -1.6925   -6.8000
   -2.0440   -6.8000
   -2.0440   -6.8000
   -2.5612   -6.8000
   -2.3126   -6.8000
   -2.3126   -6.8000
   -2.8493   -6.8000
   -2.6068   -6.8000
   -2.4045   -6.8000
   -2.8493   -6.8000
   -2.4045   -6.8000
   -2.9294   -6.8000
   -2.9294   -6.8000
   -2.5612   -6.8000
   -2.6068   -6.8000
   -2.4045   -6.8000
   -2.4045   -6.8000
   -2.3126   -6.8000
   -2.3126   -6.8000
   -2.0440   -6.8000
   -2.0440   -6.8000
   -1.6475   -6.8000
   -1.6925   -6.8000
   -1.1805   -6.8000
   -1.1188   -6.8000
   -1.3432   -6.8000
   -1.3432   -6.8000
   -1.1923   -7.2000
   -1.1375   -7.2000
   -1.6568   -7.2000
   -1.3700   -7.2000
   -1.3700   -7.2000
   -1.7049   -7.2000
   -2.0238   -7.2000
   -2.0238   -7.2000
   -2.5696   -7.2000
   -2.3262   -7.2000
   -2.3262   -7.2000
   -2.8575   -7.2000
   -2.6148   -7.2000
   -2.4254   -7.2000
   -2.8575   -7.2000
   -2.4254   -7.2000
   -2.9366   -7.2000
   -2.9366   -7.2000
   -2.5696   -7.2000
   -2.6148   -7.2000
   -2.4254   -7.2000
   -2.4254   -7.2000
   -2.3262   -7.2000
   -2.3262   -7.2000
   -2.0238   -7.2000
   -2.0238   -7.2000
   -1.6568   -7.2000
   -1.7049   -7.2000
   -1.1923   -7.2000
   -1.1375   -7.2000
   -1.3700   -7.2000
   -1.3700   -7.2000
   -1.2039   -7.6000
   -1.1559   -7.6000
   -1.6659   -7.6000
   -1.3970   -7.6000
   -1.3970   -7.6000
   -1.7173   -7.6000
   -2.0048   -7.6000
   -2.0048   -7.6000
   -2.5779   -7.6000
   -2.3395   -7.6000
   -2.3395   -7.6000
   -2.8657   -7.6000
   -2.6229   -7.6000
   -2.4446   -7.6000
   -2.8657   -7.6000
   -2.4446   -7.6000
   -2.9437   -7.6000
   -2.9437   -7.6000
   -2.5779   -7.6000
   -2.6229   -7.6000
   -2.4446   -7.6000
   -2.4446   -7.6000
   -2.3395   -7.6000
   -2.3395   -7.6000
   -2.0049   -7.6000
   -2.0049   -7.6000
   -1.6659   -7.6000
   -1.7173   -7.6000
   -1.2039   -7.6000
   -1.1559   -7.6000
   -1.3970   -7.6000
   -1.3970   -7.6000
   -1.2153   -8.0000
   -1.1739   -8.0000
   -1.6751   -8.0000
   -1.4245   -8.0000
   -1.4245   -8.0000
   -1.7295   -8.0000
   -1.9867   -8.0000
   -1.9867   -8.0000
   -2.5862   -8.0000
   -2.3526   -8.0000
   -2.3526   -8.0000
   -2.8739   -8.0000
   -2.6309   -8.0000
   -2.4624   -8.0000
   -2.8739   -8.0000
   -2.4624   -8.0000
   -2.9508   -8.0000
   -2.9508   -8.0000
   -2.5862   -8.0000
   -2.6309   -8.0000
   -2.4624   -8.0000
   -2.4624   -8.0000
   -2.3526   -8.0000
   -2.3526   -8.0000
   -1.9867   -8.0000
   -1.9867   -8.0000
   -1.6751   -8.0000
   -1.7295   -8.0000
   -1.2153   -8.0000
   -1.1739   -8.0000
   -1.4245   -8.0000
   -1.4245   -8.0000
   -1.2265   -8.4000
   -1.1918   -8.4000
   -1.6842   -8.4000
   -1.4526   -8.4000
   -1.4526   -8.4000
   -1.7417   -8.4000
   -1.9689   -8.4000
   -1.9689   -8.4000
   -2.5945   -8.4000
   -2.3654   -8.4000
   -2.3654   -8.4000
   -2.8821   -8.4000
   -2.6389   -8.4000
   -2.4792   -8.4000
   -2.8821   -8.4000
   -2.4792   -8.4000
   -2.9579   -8.4000
   -2.9579   -8.4000
   -2.5945   -8.4000
   -2.6389   -8.4000
   -2.4792   -8.4000
   -2.4792   -8.4000
   -2.3654   -8.4000
   -2.3654   -8.4000
   -1.6842   -8.4000
   -1.9689   -8.4000
   -1.9689   -8.4000
   -1.7417   -8.4000
   -1.2265   -8.4000
   -1.1918   -8.4000
   -1.4526   -8.4000
   -1.4526   -8.4000
   -1.2376   -8.8000
   -1.2093   -8.8000
   -1.6933   -8.8000
   -1.4816   -8.8000
   -1.4816   -8.8000
   -1.7537   -8.8000
   -1.9510   -8.8000
   -1.9510   -8.8000
   -2.6028   -8.8000
   -2.3779   -8.8000
   -2.3779   -8.8000
   -2.8902   -8.8000
   -2.6468   -8.8000
   -2.4951   -8.8000
   -2.8902   -8.8000
   -2.4951   -8.8000
   -2.9649   -8.8000
   -2.9649   -8.8000
   -2.6028   -8.8000
   -2.6468   -8.8000
   -2.4951   -8.8000
   -2.4951   -8.8000
   -2.3779   -8.8000
   -2.3779   -8.8000
   -1.6933   -8.8000
   -1.9510   -8.8000
   -1.9510   -8.8000
   -1.7537   -8.8000
   -1.2376   -8.8000
   -1.2093   -8.8000
   -1.4816   -8.8000
   -1.4816   -8.8000
   -1.2485   -9.2000
   -1.2266   -9.2000
   -1.7024   -9.2000
   -1.5118   -9.2000
   -1.5118   -9.2000
   -1.7657   -9.2000
   -1.9324   -9.2000
   -1.9324   -9.2000
   -2.6111   -9.2000
   -2.3903   -9.2000
   -2.3903   -9.2000
   -2.8984   -9.2000
   -2.6548   -9.2000
   -2.5102   -9.2000
   -2.8984   -9.2000
   -2.5102   -9.2000
   -2.9720   -9.2000
   -2.9720   -9.2000
   -2.6111   -9.2000
   -2.6548   -9.2000
   -2.5102   -9.2000
   -2.5102   -9.2000
   -2.3903   -9.2000
   -2.3903   -9.2000
   -1.7024   -9.2000
   -1.9324   -9.2000
   -1.9324   -9.2000
   -1.7657   -9.2000
   -1.2485   -9.2000
   -1.2266   -9.2000
   -1.5118   -9.2000
   -1.5118   -9.2000
   -1.2593   -9.6000
   -1.2437   -9.6000
   -1.7114   -9.6000
   -1.5438   -9.6000
   -1.5438   -9.6000
   -1.7776   -9.6000
   -1.9127   -9.6000
   -1.9127   -9.6000
   -2.6193   -9.6000
   -2.4024   -9.6000
   -2.4024   -9.6000
   -2.9065   -9.6000
   -2.6627   -9.6000
   -2.5247   -9.6000
   -2.9065   -9.6000
   -2.5247   -9.6000
   -2.9790   -9.6000
   -2.9790   -9.6000
   -2.6193   -9.6000
   -2.6627   -9.6000
   -2.5247   -9.6000
   -2.5247   -9.6000
   -2.4024   -9.6000
   -2.4024   -9.6000
   -1.7114   -9.6000
   -1.9127   -9.6000
   -1.9127   -9.6000
   -1.7776   -9.6000
   -1.2593   -9.6000
   -1.5438   -9.6000
   -1.5438   -9.6000
   -1.2437   -9.6000
   -1.2699  -10.0000
   -1.2605  -10.0000
   -1.7205  -10.0000
   -1.5784  -10.0000
   -1.5784  -10.0000
   -1.7895  -10.0000
   -1.8907  -10.0000
   -1.8907  -10.0000
   -2.6275  -10.0000
   -2.4144  -10.0000
   -2.4143  -10.0000
   -2.9146  -10.0000
   -2.6705  -10.0000
   -2.5387  -10.0000
   -2.9146  -10.0000
   -2.5386  -10.0000
   -2.9860  -10.0000
   -2.9860  -10.0000
   -2.6275  -10.0000
   -2.6705  -10.0000
   -2.5386  -10.0000
   -2.5386  -10.0000
   -2.4144  -10.0000
   -2.4143  -10.0000
   -1.7205  -10.0000
   -1.8907  -10.0000
   -1.8907  -10.0000
   -1.7895  -10.0000
   -1.2699  -10.0000
   -1.5784  -10.0000
   -1.5784  -10.0000
   -1.2605  -10.0000
   -1.2804  -10.4000
   -1.2771  -10.4000
   -1.7295  -10.4000
   -1.6174  -10.4000
   -1.6174  -10.4000
   -1.8012  -10.4000
   -1.8646  -10.4000
   -1.8646  -10.4000
   -2.6357  -10.4000
   -2.4261  -10.4000
   -2.4261  -10.4000
   -2.9227  -10.4000
   -2.6784  -10.4000
   -2.5521  -10.4000
   -2.9227  -10.4000
   -2.5521  -10.4000
   -2.9930  -10.4000
   -2.9930  -10.4000
   -2.6357  -10.4000
   -2.6784  -10.4000
   -2.5521  -10.4000
   -2.5521  -10.4000
   -2.4261  -10.4000
   -2.4261  -10.4000
   -1.7295  -10.4000
   -1.8646  -10.4000
   -1.8646  -10.4000
   -1.8012  -10.4000
   -1.2804  -10.4000
   -1.6174  -10.4000
   -1.6174  -10.4000
   -1.2771  -10.4000
   -1.2908  -10.8000
   -1.2935  -10.8000
   -1.7384  -10.8000
   -1.6663  -10.8000
   -1.6663  -10.8000
   -1.8129  -10.8000
   -1.8290  -10.8000
   -1.8290  -10.8000
   -2.6439  -10.8000
   -2.4377  -10.8000
   -2.4377  -10.8000
   -2.9308  -10.8000
   -2.6863  -10.8000
   -2.5652  -10.8000
   -2.9308  -10.8000
   -2.5652  -10.8000
   -3.0000  -10.8000
   -3.0000  -10.8000
   -2.6439  -10.8000
   -2.6863  -10.8000
   -2.5652  -10.8000
   -2.5652  -10.8000
   -2.4377  -10.8000
   -2.4377  -10.8000
   -1.7384  -10.8000
   -1.8129  -10.8000
   -1.8290  -10.8000
   -1.8290  -10.8000
   -1.2908  -10.8000
   -1.6663  -10.8000
   -1.6663  -10.8000
   -1.2935  -10.8000
   -1.3010  -11.2000
   -1.3096  -11.2000
   -1.7474  -11.2000
   -1.8245  -11.2000
   -2.6520  -11.2000
   -2.4491  -11.2000
   -2.4491  -11.2000
   -2.9389  -11.2000
   -2.6941  -11.2000
   -2.5778  -11.2000
   -2.9389  -11.2000
   -2.5778  -11.2000
   -2.6520  -11.2000
   -2.6941  -11.2000
   -2.5778  -11.2000
   -2.5778  -11.2000
   -2.4491  -11.2000
   -2.4491  -11.2000
   -1.8245  -11.2000
   -1.7474  -11.2000
   -1.3010  -11.2000
   -1.3096  -11.2000
   -1.3111  -11.6000
   -1.3256  -11.6000
   -1.7563  -11.6000
   -1.8360  -11.6000
   -2.6601  -11.6000
   -2.4603  -11.6000
   -2.4603  -11.6000
   -2.9470  -11.6000
   -2.7019  -11.6000
   -2.5902  -11.6000
   -2.9470  -11.6000
   -2.5902  -11.6000
   -2.6601  -11.6000
   -2.7019  -11.6000
   -2.5902  -11.6000
   -2.5902  -11.6000
   -2.4603  -11.6000
   -2.4603  -11.6000
   -1.7563  -11.6000
   -1.8360  -11.6000
   -1.3111  -11.6000
   -1.3256  -11.6000
   -0.1879  -12.0000
   -1.3211  -12.0000
   -1.3414  -12.0000
   -1.7652  -12.0000
   -1.8475  -12.0000
   -2.6682  -12.0000
   -2.4714  -12.0000
   -2.4714  -12.0000
   -2.9551  -12.0000
   -2.7096  -12.0000
   -2.9551  -12.0000
   -2.6022  -12.0000
   -2.6022  -12.0000
   -2.6682  -12.0000
   -2.7096  -12.0000
   -2.6022  -12.0000
   -2.6022  -12.0000
   -2.4714  -12.0000
   -2.4714  -12.0000
   -1.7652  -12.0000
   -1.8475  -12.0000
   -1.3211  -12.0000
   -1.3414  -12.0000
   -0.1879  -12.0000
   -0.2776  -12.4000
   -1.3310  -12.4000
   -1.3570  -12.4000
   -1.7740  -12.4000
   -1.8588  -12.4000
   -2.6763  -12.4000
   -2.4824  -12.4000
   -2.4824  -12.4000
   -2.9631  -12.4000
   -2.7174  -12.4000
   -2.9631  -12.4000
   -2.6139  -12.4000
   -2.6139  -12.4000
   -2.6763  -12.4000
   -2.7174  -12.4000
   -2.6139  -12.4000
   -2.6139  -12.4000
   -2.4824  -12.4000
   -2.4824  -12.4000
   -1.7740  -12.4000
   -1.8588  -12.4000
   -1.3310  -12.4000
   -1.3570  -12.4000
   -0.2776  -12.4000
   -0.3444  -12.8000
   -1.3408  -12.8000
   -1.3724  -12.8000
   -1.7829  -12.8000
   -1.8701  -12.8000
   -2.6844  -12.8000
   -2.4932  -12.8000
   -2.4932  -12.8000
   -2.9712  -12.8000
   -2.7251  -12.8000
   -2.9712  -12.8000
   -2.6254  -12.8000
   -2.6254  -12.8000
   -2.6844  -12.8000
   -2.7251  -12.8000
   -2.6254  -12.8000
   -2.6254  -12.8000
   -2.4932  -12.8000
   -2.4932  -12.8000
   -1.7829  -12.8000
   -1.8701  -12.8000
   -1.3408  -12.8000
   -1.3724  -12.8000
   -0.3444  -12.8000
   -0.4001  -13.2000
   -1.3505  -13.2000
   -1.3877  -13.2000
   -1.7917  -13.2000
   -1.8814  -13.2000
   -2.6924  -13.2000
   -2.5038  -13.2000
   -2.5038  -13.2000
   -2.9792  -13.2000
   -2.7328  -13.2000
   -2.9792  -13.2000
   -2.6366  -13.2000
   -2.6366  -13.2000
   -2.6924  -13.2000
   -2.7328  -13.2000
   -2.6366  -13.2000
   -2.6366  -13.2000
   -2.5038  -13.2000
   -2.5038  -13.2000
   -1.7917  -13.2000
   -1.8814  -13.2000
   -1.3505  -13.2000
   -1.3877  -13.2000
   -0.4001  -13.2000
   -0.4487  -13.6000
   -1.3601  -13.6000
   -1.4027  -13.6000
   -1.8005  -13.6000
   -1.8925  -13.6000
   -2.7004  -13.6000
   -2.5144  -13.6000
   -2.5144  -13.6000
   -2.9873  -13.6000
   -2.7405  -13.6000
   -2.9873  -13.6000
   -2.6476  -13.6000
   -2.6476  -13.6000
   -2.7004  -13.6000
   -2.7405  -13.6000
   -2.6476  -13.6000
   -2.6476  -13.6000
   -2.5144  -13.6000
   -2.5144  -13.6000
   -1.8005  -13.6000
   -1.8925  -13.6000
   -1.3601  -13.6000
   -1.4027  -13.6000
   -0.4487  -13.6000
